submission_id,QUD,age,choice1,choice2,choiceNameFirst,comments,condition,education,experiment_duration,experiment_end_time,experiment_start_time,gender,languages,name1,name2,prolific_pid,prolific_session_id,prolific_study_id,response,responseTime,statement,statementFirst,topic,trialNR
2196,Can you tell me something about Rebosen?,63,Rebosen causes Agoriv.,Agoriv causes Rebosen.,Rebosen,,topic-is-PP,Graduated College,117071,1710583482411,1710583365340,male,,Rebosen,Agoriv,5ea6f118ffcc05082764a8d4,65f56e3007e74f050a062b25,65f560505a0fd1f1dad5a605,Rebosen causes Agoriv.,82418,Agoriv is associated with Rebosen.,second,first,0
2166,Can you tell me something about Rebosen?,30,Rebosen causes Themaglin.,Themaglin causes Rebosen.,Rebosen,,topic-is-PP,Graduated High-school,36538,1710582877697,1710582841159,male,English,Themaglin,Rebosen,58c96ae35d4292000141491d,65f56c594d61aa2462a03347,65f560505a0fd1f1dad5a605,Themaglin causes Rebosen.,18623,Themaglin is associated with Rebosen.,first,second,0
2167,Can you tell me something about Flembers?,37,Themaglin causes Flembers.,Flembers causes Themaglin.,Themaglin,,topic-is-subject,Higher degree,36189,1710582950191,1710582914002,male,English,Themaglin,Flembers,5d6172922648560016056044,65f56c70499489572acce3f3,65f560505a0fd1f1dad5a605,Themaglin causes Flembers.,20631,Flembers is associated with Themaglin.,second,second,0
2168,Can you tell me something about Flembers?,61,Ceflar causes Flembers.,Flembers causes Ceflar.,Ceflar,,topic-is-PP,Did not graduate High-school,83465,1710582997422,1710582913957,female,English,Flembers,Ceflar,5ce2d91fb8d9ae001a4dda94,65f56c74499489572acce3f5,65f560505a0fd1f1dad5a605,Flembers causes Ceflar.,41431,Ceflar is associated with Flembers.,second,first,0
2169,Can you tell me something about Rebosen?,36,Ceflar causes Rebosen.,Rebosen causes Ceflar.,Ceflar,,topic-is-PP,Higher degree,46270,1710583047529,1710583001259,female,English ,Ceflar,Rebosen,61004900afdd388c5aef5702,65f56cd2fcabf3140fc134b5,65f560505a0fd1f1dad5a605,Ceflar causes Rebosen.,17098,Ceflar is associated with Rebosen.,first,second,0
2195,Can you tell me something about Themaglin?,48,Themaglin causes Ceflar.,Ceflar causes Themaglin.,Themaglin,,topic-is-PP,Graduated High-school,23487,1710583480228,1710583456741,female,english,Ceflar,Themaglin,594adf605209de0001431328,65f56e9e2466df97bed4620f,65f560505a0fd1f1dad5a605,Ceflar causes Themaglin.,12768,Ceflar is associated with Themaglin.,first,second,0
2200,Can you tell me something about Ceflar?,29,Ceflar causes Flembers.,Flembers causes Ceflar.,Ceflar,,topic-is-subject,Graduated High-school,91933,1710583542083,1710583450150,female,English,Ceflar,Flembers,631a1e8f0880ac8a21d5dc57,65f56e91fcabf3140fc13505,65f560505a0fd1f1dad5a605,Flembers causes Ceflar.,53661,Ceflar is associated with Flembers.,first,first,0
2210,Can you tell me something about Rebosen?,43,Rebosen causes Flembers.,Flembers causes Rebosen.,Rebosen,,topic-is-PP,Graduated College,38793,1710583629391,1710583590598,female,English ,Flembers,Rebosen,5cd71e04b3ea230015f83bfe,65f56f1dcf58d60ef65edc75,65f560505a0fd1f1dad5a605,Rebosen causes Flembers.,20302,Flembers is associated with Rebosen.,first,second,0
2212,Can you tell me something about Agoriv?,54,Ceflar causes Agoriv.,Agoriv causes Ceflar.,Ceflar,,topic-is-subject,Higher degree,77836,1710583641681,1710583563845,female,,Ceflar,Agoriv,59380678cd539c000157c457,65f56f04a4fe5d0913280f47,65f560505a0fd1f1dad5a605,Ceflar causes Agoriv.,56842,Agoriv is associated with Ceflar.,second,second,0
2219,Can you tell me something about Denoden?,37,Rebosen causes Denoden.,Denoden causes Rebosen.,Rebosen,,topic-is-subject,Graduated High-school,32075,1710583683632,1710583651557,female,english,Denoden,Rebosen,59e74251d838ae0001850b6a,65f56f60aa9026db59ebf2e7,65f560505a0fd1f1dad5a605,Denoden causes Rebosen.,13166,Denoden is associated with Rebosen.,first,first,0
2220,Can you tell me something about Denoden?,24,Ceflar causes Denoden.,Denoden causes Ceflar.,Ceflar,,topic-is-PP,Graduated College,29193,1710583695820,1710583666627,female,english,Ceflar,Denoden,60ec9212ee17ee6d4945f7de,65f56f515a0fd1f1dad5a8a6,65f560505a0fd1f1dad5a605,Ceflar causes Denoden.,13487,Ceflar is associated with Denoden.,first,second,0
2222,Can you tell me something about Ceflar?,35,Ceflar causes Denoden.,Denoden causes Ceflar.,Ceflar,,topic-is-subject,Graduated High-school,60819,1710583705379,1710583644561,male,English,Denoden,Ceflar,634e7bbcec6f28ed59e5bd59,65f56f52a4fe5d0913280f59,65f560505a0fd1f1dad5a605,Ceflar causes Denoden.,25199,Ceflar is associated with Denoden.,second,second,0
2225,Can you tell me something about Denoden?,66,Denoden causes Rebosen.,Rebosen causes Denoden.,Denoden,,topic-is-PP,Graduated High-school,100527,1710583725626,1710583625099,male,english,Rebosen,Denoden,60a60f05cae5cdc7ba91e73d,65f56f2bc2db2b8f78461ac5,65f560505a0fd1f1dad5a605,Rebosen causes Denoden.,49582,Rebosen is associated with Denoden.,first,second,0
2170,Can you tell me something about Themaglin?,40,Rebosen causes Themaglin.,Themaglin causes Rebosen.,Rebosen,,topic-is-subject,Graduated College,39018,1710583081588,1710583042570,female,,Rebosen,Themaglin,60dd6f413bd206c96f649835,65f56cf7fe590ca65c1640a6,65f560505a0fd1f1dad5a605,Themaglin causes Rebosen.,18465,Themaglin is associated with Rebosen.,second,second,0
2171,Can you tell me something about Ceflar?,65,Ceflar causes Agoriv.,Agoriv causes Ceflar.,Ceflar,,topic-is-subject,Graduated High-school,28622,1710583097228,1710583068606,male,English,Agoriv,Ceflar,5ddfa82bb28cf701132e7a78,65f56d1615749b705e0933f6,65f560505a0fd1f1dad5a605,Agoriv causes Ceflar.,15058,Ceflar is associated with Agoriv.,second,second,0
2172,Can you tell me something about Agoriv?,42,Agoriv causes Flembers.,Flembers causes Agoriv.,Agoriv,,topic-is-subject,Graduated High-school,48460,1710583120645,1710583072185,female,English ,Flembers,Agoriv,6148f254e3e9781ace195ec0,65f56d175e08f6ab54dff347,65f560505a0fd1f1dad5a605,Agoriv causes Flembers.,24015,Agoriv is associated with Flembers.,second,second,0
2182,Can you tell me something about Ceflar?,35,Ceflar causes Rebosen.,Rebosen causes Ceflar.,Ceflar,,topic-is-PP,Higher degree,45372,1710583256419,1710583211047,male,English,Ceflar,Rebosen,5babbd8e4e9ee300019a48bd,65f56d9ec0917460779ce71c,65f560505a0fd1f1dad5a605,Ceflar causes Rebosen.,17882,Rebosen is associated with Ceflar.,second,first,0
2189,Can you tell me something about Themaglin?,37,Ceflar causes Themaglin.,Themaglin causes Ceflar.,Ceflar,,topic-is-PP,Higher degree,30240,1710583370333,1710583340093,male,English,Themaglin,Ceflar,62c4204f8b9b00eabe68f13f,65f56e2768230ec372cd6775,65f560505a0fd1f1dad5a605,Ceflar causes Themaglin.,18688,Ceflar is associated with Themaglin.,second,first,0
2191,Can you tell me something about Rebosen?,53,Rebosen causes Flembers.,Flembers causes Rebosen.,Rebosen,I think it is more likely that Flembers' is more connected or associated with Rebosen as person two directly addresses person one's inquiry about Rebosen by mentioning Flembers. But it's a guess!,topic-is-PP,Higher degree,162269,1710583386570,1710583224301,female,English,Flembers,Rebosen,60258a30f127f411c536a660,65f56db107e74f050a062b10,65f560505a0fd1f1dad5a605,Flembers causes Rebosen.,46067,Flembers is associated with Rebosen.,first,second,0
2193,Can you tell me something about Rebosen?,44,Denoden causes Rebosen.,Rebosen causes Denoden.,Denoden,,topic-is-PP,Higher degree,65159,1710583427021,1710583361862,female,,Rebosen,Denoden,5d88d4ac1496ff001942bf3f,65f56e4ac03a2a1ad9cce62f,65f560505a0fd1f1dad5a605,Rebosen causes Denoden.,46834,Denoden is associated with Rebosen.,second,first,0
2194,Can you tell me something about Ceflar?,60,Themaglin causes Ceflar.,Ceflar causes Themaglin.,Themaglin,,topic-is-subject,Graduated High-school,50930,1710583475937,1710583425007,female,English,Ceflar,Themaglin,6481ebf947159c7efa309af7,65f56e7aa41725db8eff2a50,65f560505a0fd1f1dad5a605,Themaglin causes Ceflar.,27079,Ceflar is associated with Themaglin.,first,first,0
2173,Can you tell me something about Themaglin?,60,Rebosen causes Themaglin.,Themaglin causes Rebosen.,Rebosen,,topic-is-PP,Graduated High-school,58819,1710583070702,1710583011883,male,English,Rebosen,Themaglin,58378b753c7b7f0001fa8af6,65f56d128e2b525b091a8fcf,65f560505a0fd1f1dad5a605,Themaglin causes Rebosen.,40298,Rebosen is associated with Themaglin.,first,second,0
2174,Can you tell me something about Themaglin?,30,Themaglin causes Flembers.,Flembers causes Themaglin.,Themaglin,,topic-is-subject,Higher degree,40906,1710583127477,1710583086571,female,English,Themaglin,Flembers,5895ecee215bed0001e4f32e,65f56cf90480fb47aae8451e,65f560505a0fd1f1dad5a605,Themaglin causes Flembers.,15291,Themaglin is associated with Flembers.,first,first,0
2175,Can you tell me something about Agoriv?,33,Agoriv causes Ceflar.,Ceflar causes Agoriv.,Agoriv,,topic-is-subject,Higher degree,59120,1710583138319,1710583079199,female,English,Agoriv,Ceflar,5f51f05354863a44677a2eef,65f56d20f431a884e74c1cc1,65f560505a0fd1f1dad5a605,Ceflar causes Agoriv.,26900,Agoriv is associated with Ceflar.,first,first,0
2176,Can you tell me something about Ceflar?,28,Themaglin causes Ceflar.,Ceflar causes Themaglin.,Themaglin,,topic-is-subject,Higher degree,45102,1710583154714,1710583109612,female,English ,Ceflar,Themaglin,53889f8dfdf99b75158fddf4,65f56d38a0ffd51e16cd74d8,65f560505a0fd1f1dad5a605,Themaglin causes Ceflar.,24722,Ceflar is associated with Themaglin.,first,first,0
2177,Can you tell me something about Rebosen?,37,Agoriv causes Rebosen.,Rebosen causes Agoriv.,Agoriv,,topic-is-subject,Graduated College,46351,1710583171580,1710583125229,female,English ,Rebosen,Agoriv,62fb8bdc220ef731de457e05,65f56d2cb6cb0b088738e0cf,65f560505a0fd1f1dad5a605,Agoriv causes Rebosen.,13725,Rebosen is associated with Agoriv.,first,first,0
2178,Can you tell me something about Ceflar?,37,Ceflar causes Denoden.,Denoden causes Ceflar.,Ceflar,,topic-is-subject,Graduated College,105843,1710583181850,1710583076007,female,English,Ceflar,Denoden,56221a56ed6e5a000fc7f6a8,65f56d1b07e74f050a062adb,65f560505a0fd1f1dad5a605,Denoden causes Ceflar.,72013,Ceflar is associated with Denoden.,first,first,0
2180,Can you tell me something about Rebosen?,58,Ceflar causes Rebosen.,Rebosen causes Ceflar.,Ceflar,,topic-is-PP,Higher degree,47643,1710583218992,1710583171349,female,English ,Ceflar,Rebosen,612fad8cc0210532817a60cb,65f56d7a4f9d8d272d90d3c7,65f560505a0fd1f1dad5a605,Ceflar causes Rebosen.,25718,Ceflar is associated with Rebosen.,first,second,0
2181,Can you tell me something about Denoden?,45,Rebosen causes Denoden.,Denoden causes Rebosen.,Rebosen,,topic-is-subject,Graduated College,95166,1710583234510,1710583139344,male,English,Denoden,Rebosen,65327e37458aea3ca6a56f7f,65f56d561b19a041bbde1a31,65f560505a0fd1f1dad5a605,Denoden causes Rebosen.,43120,Denoden is associated with Rebosen.,first,first,0
2184,Can you tell me something about Agoriv?,33,Denoden causes Agoriv.,Agoriv causes Denoden.,Denoden,Thank you ,topic-is-PP,,50109,1710583299635,1710583249526,female,English,Denoden,Agoriv,63178648316b49dec1c17fea,65f56dcd9426c824ebce2069,65f560505a0fd1f1dad5a605,Agoriv causes Denoden.,27692,Denoden is associated with Agoriv.,first,second,0
2179,Can you tell me something about Rebosen?,47,Rebosen causes Flembers.,Flembers causes Rebosen.,Rebosen,,topic-is-subject,Graduated High-school,93035,1710583191303,1710583098268,female,English,Rebosen,Flembers,5a15fce9ab721b0001ef8e11,65f56d2bb6cb0b088738e0cd,65f560505a0fd1f1dad5a605,Flembers causes Rebosen.,46137,Rebosen is associated with Flembers.,first,first,0
2183,Can you tell me something about Themaglin?,32,Agoriv causes Themaglin.,Themaglin causes Agoriv.,Agoriv,,topic-is-PP,Graduated College,57197,1710583299787,1710583242590,male,English ,Agoriv,Themaglin,6153639999630a50268d3a3b,65f56dbff1470a09b64cfafe,65f560505a0fd1f1dad5a605,Agoriv causes Themaglin.,24334,Agoriv is associated with Themaglin.,first,second,0
2187,Can you tell me something about Ceflar?,67,Rebosen causes Ceflar.,Ceflar causes Rebosen.,Rebosen,,topic-is-PP,Graduated College,40115,1710583305755,1710583265640,male,English,Rebosen,Ceflar,5c01758473cbae00010f654a,65f56de4a94897240363d3f9,65f560505a0fd1f1dad5a605,Rebosen causes Ceflar.,18176,Rebosen is associated with Ceflar.,first,second,0
2202,Can you tell me something about Rebosen?,61,Flembers causes Rebosen.,Rebosen causes Flembers.,Flembers,,topic-is-subject,Graduated High-school,50072,1710583580517,1710583530445,male,,Flembers,Rebosen,644570d57bfa2bc1597e4982,65f56ee0b5d8fd739f05ff3c,65f560505a0fd1f1dad5a605,Flembers causes Rebosen.,31101,Rebosen is associated with Flembers.,second,second,0
2205,Can you tell me something about Agoriv?,39,Agoriv causes Rebosen.,Rebosen causes Agoriv.,Agoriv,,topic-is-subject,Graduated High-school,50905,1710583607868,1710583556963,female,English,Agoriv,Rebosen,5a783cc02a842c0001fc37d6,65f56efec9dc2e4a90e01c6a,65f560505a0fd1f1dad5a605,Rebosen causes Agoriv.,28436,Agoriv is associated with Rebosen.,first,first,0
2208,Can you tell me something about Flembers?,30,Themaglin causes Flembers.,Flembers causes Themaglin.,Themaglin,,topic-is-PP,Higher degree,51445,1710583619560,1710583568115,male,English,Flembers,Themaglin,5cf656e90acc8f000147f643,65f56f11a4fe5d0913280f49,65f560505a0fd1f1dad5a605,Flembers causes Themaglin.,29674,Themaglin is associated with Flembers.,second,first,0
2213,Can you tell me something about Agoriv?,35,Ceflar causes Agoriv.,Agoriv causes Ceflar.,Ceflar,,topic-is-subject,Graduated College,56520,1710583656661,1710583600141,male,English,Ceflar,Agoriv,610e93f31b3c7d3a1d6e0f4d,65f56f2a3213d7223ce27a1d,65f560505a0fd1f1dad5a605,Agoriv causes Ceflar.,32537,Agoriv is associated with Ceflar.,second,second,0
2216,Can you tell me something about Ceflar?,61,Ceflar causes Denoden.,Denoden causes Ceflar.,Ceflar,,topic-is-PP,Graduated High-school,23084,1710583663108,1710583640024,male,English ,Ceflar,Denoden,644570d57bfa2bc1597e4982,65f56ee0b5d8fd739f05ff3c,65f560505a0fd1f1dad5a605,Denoden causes Ceflar.,2870,Denoden is associated with Ceflar.,second,first,0
2230,Can you tell me something about Ceflar?,26,Ceflar causes Rebosen.,Rebosen causes Ceflar.,Ceflar,,topic-is-subject,Graduated College,54012,1710583764080,1710583710068,female,English,Rebosen,Ceflar,5a54e0b7ac5624000153865d,65f56f97838dcc1ac145f32a,65f560505a0fd1f1dad5a605,Rebosen causes Ceflar.,23466,Ceflar is associated with Rebosen.,second,second,0
2185,Can you tell me something about Denoden?,60,Denoden causes Flembers.,Flembers causes Denoden.,Denoden,,topic-is-PP,Higher degree,68586,1710583301792,1710583233206,male,English,Flembers,Denoden,5b1bc42168a5ed0001737ef3,65f56dbaa163a187260c012e,65f560505a0fd1f1dad5a605,Flembers causes Denoden.,39334,Flembers is associated with Denoden.,first,second,0
2186,Can you tell me something about Themaglin?,33,Ceflar causes Themaglin.,Themaglin causes Ceflar.,Ceflar,,topic-is-subject,Higher degree,71583,1710583314589,1710583243006,female,"English, Urdu, Punjabi",Themaglin,Ceflar,5d339a0d3914420001a07f00,65f56dc177f3db0d478882bc,65f560505a0fd1f1dad5a605,Themaglin causes Ceflar.,45928,Themaglin is associated with Ceflar.,first,first,0
2192,Can you tell me something about Ceflar?,68,Denoden causes Ceflar.,Ceflar causes Denoden.,Denoden,,topic-is-subject,Higher degree,65007,1710583436484,1710583371477,female,English,Ceflar,Denoden,5d628bb8d293be0017808bf6,65f56e3db2471d94ad38ddff,65f560505a0fd1f1dad5a605,Denoden causes Ceflar.,40833,Ceflar is associated with Denoden.,first,first,0
2198,Can you tell me something about Themaglin?,39,Themaglin causes Rebosen.,Rebosen causes Themaglin.,Themaglin,,topic-is-PP,Graduated College,43808,1710583494132,1710583450324,female,English,Themaglin,Rebosen,5bad2d8350791d000114442b,65f56e944af96460db08fdd1,65f560505a0fd1f1dad5a605,Themaglin causes Rebosen.,27470,Rebosen is associated with Themaglin.,second,first,0
2229,Can you tell me something about Denoden?,39,Themaglin causes Denoden.,Denoden causes Themaglin.,Themaglin,,topic-is-PP,Higher degree,33369,1710583746992,1710583713623,male,English,Denoden,Themaglin,5e66a61aed17a90318af3adb,65f56f8e51100c7020887e17,65f560505a0fd1f1dad5a605,Themaglin causes Denoden.,16926,Themaglin is associated with Denoden.,second,first,0
2234,Can you tell me something about Ceflar?,38,Ceflar causes Agoriv.,Agoriv causes Ceflar.,Ceflar,,topic-is-PP,Higher degree,72330,1710583778748,1710583706418,male,English,Agoriv,Ceflar,58f93198dbfafa0001d227c9,65f56f922f7c9ce94d0bf803,65f560505a0fd1f1dad5a605,Agoriv causes Ceflar.,33557,Agoriv is associated with Ceflar.,first,second,0
2242,Can you tell me something about Denoden?,57,Denoden causes Rebosen.,Rebosen causes Denoden.,Denoden,,topic-is-PP,Graduated College,39965,1710583859921,1710583819956,female,"English, Italian",Denoden,Rebosen,5ea01c7e792cdc00099748d6,65f57006a163a187260c01bd,65f560505a0fd1f1dad5a605,Rebosen causes Denoden.,20348,Rebosen is associated with Denoden.,second,first,0
2247,Can you tell me something about Flembers?,48,Agoriv causes Flembers.,Flembers causes Agoriv.,Agoriv,,topic-is-subject,Higher degree,63002,1710583886773,1710583823771,female,English,Agoriv,Flembers,5d758d935625b90001fa4014,65f570045fbf82f0d5de5b56,65f560505a0fd1f1dad5a605,Agoriv causes Flembers.,33511,Flembers is associated with Agoriv.,second,second,0
2250,Can you tell me something about Denoden?,49,Agoriv causes Denoden.,Denoden causes Agoriv.,Agoriv,,topic-is-PP,Graduated College,59538,1710583897958,1710583838420,female,English,Agoriv,Denoden,552bf9b4fdf99b59afb6c38c,65f5700f4c70df44e4ce32d1,65f560505a0fd1f1dad5a605,Denoden causes Agoriv.,24999,Agoriv is associated with Denoden.,first,second,0
2188,Can you tell me something about Denoden?,39,Agoriv causes Denoden.,Denoden causes Agoriv.,Agoriv,,topic-is-PP,Graduated College,39864,1710583359133,1710583319269,female,English,Agoriv,Denoden,58fa36995214e3000193281c,65f56e0f3cc1862af61a9be8,65f560505a0fd1f1dad5a605,Denoden causes Agoriv.,20959,Agoriv is associated with Denoden.,first,second,0
2190,Can you tell me something about Rebosen?,37,Rebosen causes Flembers.,Flembers causes Rebosen.,Rebosen,,topic-is-subject,Higher degree,55788,1710583378231,1710583322443,male,English,Flembers,Rebosen,659d535f33273bfcc445eaf3,65f56e103cc1862af61a9bee,65f560505a0fd1f1dad5a605,Rebosen causes Flembers.,27352,Rebosen is associated with Flembers.,second,second,0
2199,Can you tell me something about Rebosen?,56,Ceflar causes Rebosen.,Rebosen causes Ceflar.,Ceflar,,topic-is-subject,Graduated College,86935,1710583522017,1710583435082,female,English,Rebosen,Ceflar,61422a3115aaa36f32f2e0c2,65f56e80cf58d60ef65edc46,65f560505a0fd1f1dad5a605,Ceflar causes Rebosen.,42995,Rebosen is associated with Ceflar.,first,first,0
2211,Can you tell me something about Agoriv?,26,Agoriv causes Themaglin.,Themaglin causes Agoriv.,Agoriv,,topic-is-subject,Higher degree,36377,1710583635764,1710583599387,male,English,Agoriv,Themaglin,615e95eddff82cf25e73abb2,65f56f27df5d5ea675b1c6c1,65f560505a0fd1f1dad5a605,Themaglin causes Agoriv.,25100,Agoriv is associated with Themaglin.,first,first,0
2214,Can you tell me something about Rebosen?,53,Rebosen causes Flembers.,Flembers causes Rebosen.,Rebosen,,topic-is-subject,Higher degree,29127,1710583660402,1710583631275,female,English,Flembers,Rebosen,5966aae6d9e2860001b26dc7,65f56f445754b209484d0ec3,65f560505a0fd1f1dad5a605,Flembers causes Rebosen.,12782,Rebosen is associated with Flembers.,second,second,0
2226,Can you tell me something about Flembers?,38,Flembers causes Denoden.,Denoden causes Flembers.,Flembers,,topic-is-PP,Higher degree,51569,1710583715974,1710583664405,male,english,Flembers,Denoden,5ef0fcea28006f6b24913b02,65f56f23c2c3b78c8ed5a7cd,65f560505a0fd1f1dad5a605,Flembers causes Denoden.,29734,Denoden is associated with Flembers.,second,first,0
2241,Can you tell me something about Themaglin?,31,Ceflar causes Themaglin.,Themaglin causes Ceflar.,Ceflar,,topic-is-PP,Graduated College,45218,1710583858295,1710583813077,male,English ,Ceflar,Themaglin,61057c15a41ca76d1929f024,65f56ffcc2c3b78c8ed5a7fe,65f560505a0fd1f1dad5a605,Themaglin causes Ceflar.,27251,Ceflar is associated with Themaglin.,first,second,0
2276,Can you tell me something about Agoriv?,41,Agoriv causes Denoden.,Denoden causes Agoriv.,Agoriv,,topic-is-PP,Higher degree,48782,1710584014539,1710583965757,female,English,Denoden,Agoriv,65a1480e4e95f947561505b6,65f570967f5b498314e141ec,65f560505a0fd1f1dad5a605,Denoden causes Agoriv.,21881,Denoden is associated with Agoriv.,first,second,0
2277,Can you tell me something about Agoriv?,54,Agoriv causes Ceflar.,Ceflar causes Agoriv.,Agoriv,,topic-is-subject,Graduated College,57378,1710584016600,1710583959222,female,English,Ceflar,Agoriv,613791ef07e699be4ebd53f8,65f570827f5b498314e141e8,65f560505a0fd1f1dad5a605,Agoriv causes Ceflar.,35437,Agoriv is associated with Ceflar.,second,second,0
2197,Can you tell me something about Denoden?,28,Denoden causes Flembers.,Flembers causes Denoden.,Denoden,,topic-is-subject,Graduated College,32845,1710583489245,1710583456400,female,English,Flembers,Denoden,5d35f333c5b0480019004321,65f56e9aa0ffd51e16cd7512,65f560505a0fd1f1dad5a605,Denoden causes Flembers.,15566,Denoden is associated with Flembers.,second,second,0
2201,Can you tell me something about Themaglin?,25,Themaglin causes Denoden.,Denoden causes Themaglin.,Themaglin,,topic-is-PP,Graduated College,38695,1710583572275,1710583533580,male,English,Themaglin,Denoden,62b305571881769a2296082c,65f56ee42466df97bed4621f,65f560505a0fd1f1dad5a605,Denoden causes Themaglin.,17048,Denoden is associated with Themaglin.,second,first,0
2204,Can you tell me something about Denoden?,42,Denoden causes Ceflar.,Ceflar causes Denoden.,Denoden,,topic-is-PP,Graduated High-school,58382,1710583603991,1710583545609,female,English,Ceflar,Denoden,6164a6bd457c0398791b5f99,65f56ef0b2471d94ad38de43,65f560505a0fd1f1dad5a605,Denoden causes Ceflar.,22333,Ceflar is associated with Denoden.,first,second,0
2221,Can you tell me something about Themaglin?,52,Themaglin causes Ceflar.,Ceflar causes Themaglin.,Themaglin,,topic-is-PP,Graduated High-school,81697,1710583704735,1710583623038,female,English,Ceflar,Themaglin,58efec0c95e1480001305bd2,65f56f3fbaabda8dcaff0699,65f560505a0fd1f1dad5a605,Ceflar causes Themaglin.,54188,Ceflar is associated with Themaglin.,first,second,0
2235,Can you tell me something about Agoriv?,56,Agoriv causes Rebosen.,Rebosen causes Agoriv.,Agoriv,I was stumped at first but then I took it to mean that Robosen may be a condition.,topic-is-PP,Graduated High-school,379407,1710583783304,1710583403897,female,English,Agoriv,Rebosen,64834ca600dfc800b8242f95,65f56e624c70df44e4ce3280,65f560505a0fd1f1dad5a605,Rebosen causes Agoriv.,122813,Rebosen is associated with Agoriv.,second,first,0
2237,Can you tell me something about Denoden?,58,Denoden causes Flembers.,Flembers causes Denoden.,Denoden,,topic-is-subject,Higher degree,54649,1710583804268,1710583749619,female,English,Denoden,Flembers,5f4eae624562c70dbee13cd2,65f56fc25e08f6ab54dff3be,65f560505a0fd1f1dad5a605,Denoden causes Flembers.,28223,Denoden is associated with Flembers.,first,first,0
2254,Can you tell me something about Flembers?,29,Themaglin causes Flembers.,Flembers causes Themaglin.,Themaglin,,topic-is-subject,Graduated College,60551,1710583934748,1710583874197,female,english,Themaglin,Flembers,59949fcfcf1d1700016efa58,65f57035499489572acce49e,65f560505a0fd1f1dad5a605,Themaglin causes Flembers.,32050,Flembers is associated with Themaglin.,second,second,0
2257,Can you tell me something about Rebosen?,25,Rebosen causes Ceflar.,Ceflar causes Rebosen.,Rebosen,,topic-is-subject,Higher degree,35013,1710583948483,1710583913470,female,english,Ceflar,Rebosen,5f904410ef86570b6eeebcb6,65f57057391bec682990d21b,65f560505a0fd1f1dad5a605,Ceflar causes Rebosen.,14458,Rebosen is associated with Ceflar.,second,second,0
2203,Can you tell me something about Ceflar?,63,Rebosen causes Ceflar.,Ceflar causes Rebosen.,Rebosen,None.,topic-is-subject,Higher degree,90201,1710583590762,1710583500561,male,English,Ceflar,Rebosen,5cb4b413a17c7300154f8b60,65f56ec04c70df44e4ce3297,65f560505a0fd1f1dad5a605,Rebosen causes Ceflar.,42414,Ceflar is associated with Rebosen.,first,first,0
2206,Can you tell me something about Agoriv?,55,Agoriv causes Ceflar.,Ceflar causes Agoriv.,Agoriv,,topic-is-PP,Higher degree,69946,1710583613834,1710583543888,male,English,Agoriv,Ceflar,5c7e32d919b8d40016e6c7ef,65f56eee5754b209484d0eb4,65f560505a0fd1f1dad5a605,Agoriv causes Ceflar.,41596,Ceflar is associated with Agoriv.,second,first,0
2209,Can you tell me something about Ceflar?,38,Themaglin causes Ceflar.,Ceflar causes Themaglin.,Themaglin,,topic-is-PP,Higher degree,28212,1710583630617,1710583602405,male,english,Themaglin,Ceflar,5ef0fcea28006f6b24913b02,65f56f23c2c3b78c8ed5a7cd,65f560505a0fd1f1dad5a605,Themaglin causes Ceflar.,47,Themaglin is associated with Ceflar.,first,second,0
2224,Can you tell me something about Flembers?,43,Flembers causes Agoriv.,Agoriv causes Flembers.,Flembers,,topic-is-subject,Graduated High-school,71729,1710583713338,1710583641609,male,English ,Flembers,Agoriv,601ef22cb13fd83f1f43393e,65f56f4f4d61aa2462a033df,65f560505a0fd1f1dad5a605,Agoriv causes Flembers.,34648,Flembers is associated with Agoriv.,first,first,0
2231,Can you tell me something about Flembers?,35,Agoriv causes Flembers.,Flembers causes Agoriv.,Agoriv,,topic-is-subject,Higher degree,75564,1710583766015,1710583690451,female,Tagalog,Flembers,Agoriv,608b2baaabbc11fcf3928625,65f56f83dc148945f0f094f6,65f560505a0fd1f1dad5a605,Agoriv causes Flembers.,47777,Flembers is associated with Agoriv.,first,first,0
2264,Can you tell me something about Agoriv?,47,Agoriv causes Ceflar.,Ceflar causes Agoriv.,Agoriv,,topic-is-subject,Graduated High-school,54970,1710583978512,1710583923542,male,English,Ceflar,Agoriv,56f5a802736c79000d22e241,65f5706bc4b0110a2eea64ee,65f560505a0fd1f1dad5a605,Ceflar causes Agoriv.,29097,Agoriv is associated with Ceflar.,second,second,0
2265,Can you tell me something about Flembers?,24,Flembers causes Rebosen.,Rebosen causes Flembers.,Flembers,,topic-is-PP,Graduated High-school,35393,1710583988877,1710583953484,female,English,Flembers,Rebosen,62f86986459eb8ab70339c2d,65f5708b762a07b50be81e5e,65f560505a0fd1f1dad5a605,Flembers causes Rebosen.,15462,Rebosen is associated with Flembers.,second,first,0
2281,Can you tell me something about Rebosen?,43,Rebosen causes Agoriv.,Agoriv causes Rebosen.,Rebosen,,topic-is-PP,Higher degree,78048,1710584038235,1710583960187,female,English ,Agoriv,Rebosen,60f8170c3455dc96b7ac73bb,65f57091c03a2a1ad9cce6c7,65f560505a0fd1f1dad5a605,Rebosen causes Agoriv.,48142,Agoriv is associated with Rebosen.,first,second,0
2306,Can you tell me something about Rebosen?,61,Ceflar causes Rebosen.,Rebosen causes Ceflar.,Ceflar,,topic-is-subject,Graduated College,74152,1710584167144,1710584092992,female,english,Ceflar,Rebosen,58810bc97b21a60001758c8b,65f571105fbf82f0d5de5ba0,65f560505a0fd1f1dad5a605,Ceflar causes Rebosen.,43328,Rebosen is associated with Ceflar.,second,second,0
2207,Can you tell me something about Flembers?,57,Denoden causes Flembers.,Flembers causes Denoden.,Denoden,,topic-is-subject,Graduated High-school,95628,1710583615725,1710583520097,male,English ,Denoden,Flembers,5d559830e8add20001ccf2f8,65f56ed55754b209484d0eaf,65f560505a0fd1f1dad5a605,Denoden causes Flembers.,44034,Flembers is associated with Denoden.,second,second,0
2215,Can you tell me something about Rebosen?,47,Ceflar causes Rebosen.,Rebosen causes Ceflar.,Ceflar,,topic-is-subject,Higher degree,64657,1710583661550,1710583596893,female,english,Rebosen,Ceflar,5d87670a9497150001326547,65f56f27fe590ca65c164110,65f560505a0fd1f1dad5a605,Ceflar causes Rebosen.,37249,Rebosen is associated with Ceflar.,first,first,0
2217,Can you tell me something about Themaglin?,62,Themaglin causes Agoriv.,Agoriv causes Themaglin.,Themaglin,,topic-is-PP,Graduated High-school,76935,1710583672990,1710583596055,female,English ,Themaglin,Agoriv,60b23a3378fc761a80f717f9,65f56f22ee786cff7aa22475,65f560505a0fd1f1dad5a605,Themaglin causes Agoriv.,42091,Agoriv is associated with Themaglin.,second,first,0
2232,Can you tell me something about Agoriv?,36,Denoden causes Agoriv.,Agoriv causes Denoden.,Denoden,,topic-is-subject,Higher degree,51243,1710583769534,1710583718291,female,English,Denoden,Agoriv,5fd39e76251e2503b8fbb552,65f56f954c70df44e4ce32b8,65f560505a0fd1f1dad5a605,Denoden causes Agoriv.,24798,Agoriv is associated with Denoden.,second,second,0
2238,Can you tell me something about Denoden?,58,Flembers causes Denoden.,Denoden causes Flembers.,Flembers,,topic-is-subject,Graduated High-school,45293,1710583823524,1710583778231,male,English,Denoden,Flembers,646241c99c2d2381e989c328,65f56fd88e2b525b091a906d,65f560505a0fd1f1dad5a605,Flembers causes Denoden.,19184,Denoden is associated with Flembers.,first,first,0
2246,Can you tell me something about Flembers?,27,Ceflar causes Flembers.,Flembers causes Ceflar.,Ceflar,,topic-is-subject,Higher degree,60226,1710583881964,1710583821738,male,english,Flembers,Ceflar,5f54b7bc649418811db24711,65f57009a0ffd51e16cd7563,65f560505a0fd1f1dad5a605,Ceflar causes Flembers.,20952,Flembers is associated with Ceflar.,first,first,0
2278,Can you tell me something about Ceflar?,27,Ceflar causes Themaglin.,Themaglin causes Ceflar.,Ceflar,,topic-is-subject,Higher degree,63328,1710584022318,1710583958990,male,English,Themaglin,Ceflar,5f10801832ec821c0cab6163,65f5708e1c03bff8caa1ee86,65f560505a0fd1f1dad5a605,Themaglin causes Ceflar.,35726,Ceflar is associated with Themaglin.,second,second,0
2279,Can you tell me something about Denoden?,31,Flembers causes Denoden.,Denoden causes Flembers.,Flembers,,topic-is-subject,Higher degree,48469,1710584027173,1710583978704,male,English,Denoden,Flembers,6120cea050e9bce18a162223,65f570a407e74f050a062bbf,65f560505a0fd1f1dad5a605,Flembers causes Denoden.,25837,Denoden is associated with Flembers.,first,first,0
2297,Can you tell me something about Agoriv?,28,Ceflar causes Agoriv.,Agoriv causes Ceflar.,Ceflar,,topic-is-subject,Graduated High-school,53758,1710584113056,1710584059298,female,English ,Ceflar,Agoriv,63d8665164999168637f2029,65f570f50480fb47aae845f2,65f560505a0fd1f1dad5a605,Ceflar causes Agoriv.,14518,Agoriv is associated with Ceflar.,second,second,0
2218,Can you tell me something about Ceflar?,23,Ceflar causes Denoden.,Denoden causes Ceflar.,Ceflar,,topic-is-PP,Graduated High-school,80846,1710583678301,1710583597455,other,English,Denoden,Ceflar,65b2d48464a6cd2bfe4df459,65f56f274af96460db08fe09,65f560505a0fd1f1dad5a605,Ceflar causes Denoden.,56250,Denoden is associated with Ceflar.,first,second,0
2223,Can you tell me something about Flembers?,,Rebosen causes Flembers.,Flembers causes Rebosen.,Rebosen,,topic-is-subject,Graduated High-school,70613,1710583708910,1710583638297,female,English ,Flembers,Rebosen,59a325d98d2b1600011b3f96,65f56f4e762a07b50be81e1b,65f560505a0fd1f1dad5a605,Flembers causes Rebosen.,39588,Flembers is associated with Rebosen.,first,first,0
2260,Can you tell me something about Themaglin?,51,Themaglin causes Flembers.,Flembers causes Themaglin.,Themaglin,,topic-is-subject,Graduated College,53783,1710583954543,1710583900760,male,English,Themaglin,Flembers,5a3a570307245d0001fc0692,65f5705e84a132e10ed5b951,65f560505a0fd1f1dad5a605,Flembers causes Themaglin.,28991,Themaglin is associated with Flembers.,first,first,0
2262,Can you tell me something about Ceflar?,31,Denoden causes Ceflar.,Ceflar causes Denoden.,Denoden,,topic-is-subject,Graduated College,34910,1710583969878,1710583934968,male,english,Denoden,Ceflar,62eecc131c4b40e5a9fdb8c0,65f57079391bec682990d221,65f560505a0fd1f1dad5a605,Denoden causes Ceflar.,17751,Ceflar is associated with Denoden.,second,second,0
2274,Can you tell me something about Flembers?,42,Flembers causes Agoriv.,Agoriv causes Flembers.,Flembers,,topic-is-PP,Higher degree,73896,1710584008868,1710583934972,female,English ,Flembers,Agoriv,5c88fac8e0da6500178fe7f2,65f57075ee786cff7aa224c1,65f560505a0fd1f1dad5a605,Flembers causes Agoriv.,39427,Agoriv is associated with Flembers.,second,first,0
2288,Can you tell me something about Themaglin?,40,Denoden causes Themaglin.,Themaglin causes Denoden.,Denoden,,topic-is-PP,Graduated College,53322,1710584073212,1710584019890,female,English,Denoden,Themaglin,5b51c33d026602000178b5ec,65f570cda163a187260c0201,65f560505a0fd1f1dad5a605,Denoden causes Themaglin.,35406,Denoden is associated with Themaglin.,first,second,0
2291,Can you tell me something about Agoriv?,59,Themaglin causes Agoriv.,Agoriv causes Themaglin.,Themaglin,,topic-is-subject,Graduated High-school,56587,1710584083614,1710584027027,female,English,Agoriv,Themaglin,5ccb4c09e9c5b40016f6b05e,65f570ceaa9026db59ebf347,65f560505a0fd1f1dad5a605,Agoriv causes Themaglin.,30646,Agoriv is associated with Themaglin.,first,first,0
2299,Can you tell me something about Ceflar?,70,Ceflar causes Flembers.,Flembers causes Ceflar.,Ceflar,,topic-is-subject,Graduated High-school,66583,1710584132422,1710584065839,female,English,Flembers,Ceflar,6485fdd710b39198f65e63f4,65f570f7a94897240363d4cf,65f560505a0fd1f1dad5a605,Flembers causes Ceflar.,37061,Ceflar is associated with Flembers.,second,second,0
2312,Can you tell me something about Denoden?,40,Denoden causes Agoriv.,Agoriv causes Denoden.,Denoden,,topic-is-PP,Graduated High-school,51246,1710584186876,1710584135630,female,English,Denoden,Agoriv,59779749d5ddf60001d14bee,65f5713dfe590ca65c16417d,65f560505a0fd1f1dad5a605,Denoden causes Agoriv.,25532,Agoriv is associated with Denoden.,second,first,0
2227,Can you tell me something about Rebosen?,55,Rebosen causes Denoden.,Denoden causes Rebosen.,Rebosen,,topic-is-subject,Higher degree,69274,1710583713950,1710583644676,female,ENGLISH,Rebosen,Denoden,5cc052c9a1e263001715594d,65f56f521147bc02884a096b,65f560505a0fd1f1dad5a605,Denoden causes Rebosen.,34050,Rebosen is associated with Denoden.,first,first,0
2228,Can you tell me something about Rebosen?,24,Flembers causes Rebosen.,Rebosen causes Flembers.,Flembers,,topic-is-subject,Graduated High-school,46760,1710583724978,1710583678218,female,English ,Rebosen,Flembers,615e1c89bc1cacee9f13c58e,65f56f761147bc02884a0976,65f560505a0fd1f1dad5a605,Flembers causes Rebosen.,28041,Rebosen is associated with Flembers.,first,first,0
2236,Can you tell me something about Ceflar?,35,Ceflar causes Rebosen.,Rebosen causes Ceflar.,Ceflar,,topic-is-PP,Graduated College,38667,1710583787061,1710583748394,male,English,Rebosen,Ceflar,605f064127eec9cb4494b4d9,65f56fc15fbf82f0d5de5b4a,65f560505a0fd1f1dad5a605,Rebosen causes Ceflar.,21536,Rebosen is associated with Ceflar.,first,second,0
2249,Can you tell me something about Flembers?,35,Ceflar causes Flembers.,Flembers causes Ceflar.,Ceflar,,topic-is-PP,Graduated College,67372,1710583894701,1710583827329,female,English ,Ceflar,Flembers,6161d2329a7b14fb4a336f73,65f5700b8f9ee4e035af3a0b,65f560505a0fd1f1dad5a605,Flembers causes Ceflar.,36084,Ceflar is associated with Flembers.,first,second,0
2251,Can you tell me something about Agoriv?,24,Ceflar causes Agoriv.,Agoriv causes Ceflar.,Ceflar,,topic-is-subject,Graduated College,61954,1710583903362,1710583841408,female,English,Ceflar,Agoriv,5f1e8aa76210d9000c23deb5,65f5700b1b19a041bbde1aa8,65f560505a0fd1f1dad5a605,Ceflar causes Agoriv.,31143,Agoriv is associated with Ceflar.,second,second,0
2252,Can you tell me something about Agoriv?,26,Rebosen causes Agoriv.,Agoriv causes Rebosen.,Rebosen,,topic-is-PP,Graduated College,78739,1710583910329,1710583831590,female,English ,Rebosen,Agoriv,5f2b2edf9c073d531ede4967,65f57012c4b0110a2eea64cd,65f560505a0fd1f1dad5a605,Agoriv causes Rebosen.,49673,Rebosen is associated with Agoriv.,first,second,0
2266,Can you tell me something about Themaglin?,43,Themaglin causes Flembers.,Flembers causes Themaglin.,Themaglin,,topic-is-subject,Graduated College,64211,1710583989897,1710583925686,male,English,Flembers,Themaglin,61516c12872973b48c8594ae,65f57072dc148945f0f09551,65f560505a0fd1f1dad5a605,Themaglin causes Flembers.,38382,Themaglin is associated with Flembers.,second,second,0
2275,Can you tell me something about Themaglin?,42,Themaglin causes Rebosen.,Rebosen causes Themaglin.,Themaglin,,topic-is-PP,Graduated College,109020,1710584014205,1710583905185,male,english,Rebosen,Themaglin,55ba0babfdf99b09bd1bec17,65f570546dc788f69e71515c,65f560505a0fd1f1dad5a605,Rebosen causes Themaglin.,69183,Rebosen is associated with Themaglin.,first,second,0
2304,Can you tell me something about Ceflar?,31,Denoden causes Ceflar.,Ceflar causes Denoden.,Denoden,,topic-is-PP,Higher degree,53603,1710584161231,1710584107628,female,English,Denoden,Ceflar,616f2317fed4c878757bcc59,65f57125762a07b50be81e99,65f560505a0fd1f1dad5a605,Denoden causes Ceflar.,30293,Denoden is associated with Ceflar.,first,second,0
2233,Can you tell me something about Denoden?,43,Denoden causes Rebosen.,Rebosen causes Denoden.,Denoden,,topic-is-PP,Graduated High-school,31498,1710583774579,1710583743081,female,English ,Denoden,Rebosen,5e2e0737bc55493eebd0ea53,65f56fb751100c7020887e22,65f560505a0fd1f1dad5a605,Rebosen causes Denoden.,16530,Rebosen is associated with Denoden.,second,first,0
2245,Can you tell me something about Themaglin?,59,Denoden causes Themaglin.,Themaglin causes Denoden.,Denoden,,topic-is-subject,Graduated High-school,72006,1710583875446,1710583803440,male,English,Themaglin,Denoden,5d87aa1f1af55f00010adb4b,65f56ff1762a07b50be81e3c,65f560505a0fd1f1dad5a605,Denoden causes Themaglin.,42357,Themaglin is associated with Denoden.,first,first,0
2248,Can you tell me something about Agoriv?,42,Rebosen causes Agoriv.,Agoriv causes Rebosen.,Rebosen,,topic-is-PP,Graduated College,58755,1710583892573,1710583833818,male,English,Agoriv,Rebosen,568a3ac1d3d6a7000ba240b0,65f570105fbf82f0d5de5b5b,65f560505a0fd1f1dad5a605,Rebosen causes Agoriv.,33683,Rebosen is associated with Agoriv.,second,first,0
2255,Can you tell me something about Themaglin?,37,Themaglin causes Ceflar.,Ceflar causes Themaglin.,Themaglin,,topic-is-subject,Graduated College,24909,1710583936281,1710583911372,female,English,Themaglin,Ceflar,57a867cc70c76a00012469cd,65f56ebe4af96460db08fdeb,65f560505a0fd1f1dad5a605,Themaglin causes Ceflar.,12280,Themaglin is associated with Ceflar.,first,first,0
2263,Can you tell me something about Ceflar?,31,Denoden causes Ceflar.,Ceflar causes Denoden.,Denoden,,topic-is-PP,Graduated College,42812,1710583975929,1710583933117,female,,Ceflar,Denoden,6067829b3bfa1e58b8b19e21,65f57077499489572acce4b0,65f560505a0fd1f1dad5a605,Denoden causes Ceflar.,20701,Denoden is associated with Ceflar.,second,first,0
2272,Can you tell me something about Agoriv?,36,Agoriv causes Flembers.,Flembers causes Agoriv.,Agoriv,thanks,topic-is-PP,Graduated College,63526,1710584006179,1710583942653,male,bengali,Flembers,Agoriv,63d18330964d8e7f0f14164d,65f5707aa41725db8eff2b02,65f560505a0fd1f1dad5a605,Agoriv causes Flembers.,25551,Flembers is associated with Agoriv.,first,second,0
2273,Can you tell me something about Themaglin?,47,Themaglin causes Denoden.,Denoden causes Themaglin.,Themaglin,,topic-is-PP,Graduated College,66026,1710584007539,1710583941513,male,"English, Scots",Themaglin,Denoden,63469b33c8cdbd6d3067c28b,65f57083dc148945f0f0955a,65f560505a0fd1f1dad5a605,Themaglin causes Denoden.,20655,Denoden is associated with Themaglin.,second,first,0
2309,Can you tell me something about Rebosen?,34,Rebosen causes Themaglin.,Themaglin causes Rebosen.,Rebosen,,topic-is-subject,Higher degree,43968,1710584174355,1710584130387,female,English,Themaglin,Rebosen,5c1bf5ae10677f0001d9a382,65f5713851100c7020887e77,65f560505a0fd1f1dad5a605,Rebosen causes Themaglin.,25875,Rebosen is associated with Themaglin.,second,second,0
2328,Can you tell me something about Flembers?,27,Flembers causes Denoden.,Denoden causes Flembers.,Flembers,,topic-is-PP,Graduated College,40580,1710584244770,1710584204190,female,English,Denoden,Flembers,616595ace46d35dafdd7edd4,65f5717398fe086877d5b3f5,65f560505a0fd1f1dad5a605,Denoden causes Flembers.,17933,Denoden is associated with Flembers.,first,second,0
2239,Can you tell me something about Rebosen?,69,Denoden causes Rebosen.,Rebosen causes Denoden.,Denoden,,topic-is-PP,Higher degree,97051,1710583825331,1710583728280,male,English,Denoden,Rebosen,5ec6b8c209c94d0cff697edf,65f56fa7dc148945f0f09506,65f560505a0fd1f1dad5a605,Denoden causes Rebosen.,55008,Denoden is associated with Rebosen.,first,second,0
2240,Can you tell me something about Agoriv?,57,Flembers causes Agoriv.,Agoriv causes Flembers.,Flembers,,topic-is-PP,Graduated College,63811,1710583850362,1710583786551,female,English ,Agoriv,Flembers,573f59f150f5e6000dcc4963,65f56fdc4af96460db08fe2f,65f560505a0fd1f1dad5a605,Agoriv causes Flembers.,24937,Flembers is associated with Agoriv.,second,first,0
2243,Can you tell me something about Ceflar?,38,Flembers causes Ceflar.,Ceflar causes Flembers.,Flembers,,topic-is-PP,Graduated College,33055,1710583865412,1710583832357,female,English ,Ceflar,Flembers,5f8f40be49664a18164e7231,65f5700d4c70df44e4ce32cf,65f560505a0fd1f1dad5a605,Ceflar causes Flembers.,12989,Flembers is associated with Ceflar.,second,first,0
2244,Can you tell me something about Flembers?,28,Rebosen causes Flembers.,Flembers causes Rebosen.,Rebosen,,topic-is-PP,Graduated High-school,55004,1710583866107,1710583811103,female,english,Flembers,Rebosen,5f3d4416c9088f09a5929418,65f56ffb762a07b50be81e41,65f560505a0fd1f1dad5a605,Flembers causes Rebosen.,29068,Rebosen is associated with Flembers.,second,first,0
2256,Can you tell me something about Denoden?,23,Ceflar causes Denoden.,Denoden causes Ceflar.,Ceflar,,topic-is-subject,Graduated High-school,38365,1710583943690,1710583905325,female,English,Ceflar,Denoden,6307d078f1d08d8414e64f22,65f57059a41725db8eff2af3,65f560505a0fd1f1dad5a605,Ceflar causes Denoden.,22422,Denoden is associated with Ceflar.,second,second,0
2269,Can you tell me something about Agoriv?,20,Denoden causes Agoriv.,Agoriv causes Denoden.,Denoden,,topic-is-subject,Graduated High-school,61668,1710583999650,1710583937982,male,English,Agoriv,Denoden,65bbd829ca96a66893917811,65f57048a4bcfa4e229ced34,65f560505a0fd1f1dad5a605,Agoriv causes Denoden.,41986,Agoriv is associated with Denoden.,first,first,0
2270,Can you tell me something about Rebosen?,59,Denoden causes Rebosen.,Rebosen causes Denoden.,Denoden,,topic-is-subject,Graduated High-school,106509,1710584006925,1710583900416,male,English ,Rebosen,Denoden,62347ee217c402f4acae35d0,65f57046499489572acce4a4,65f560505a0fd1f1dad5a605,Denoden causes Rebosen.,66037,Rebosen is associated with Denoden.,first,first,0
2271,Can you tell me something about Rebosen?,45,Flembers causes Rebosen.,Rebosen causes Flembers.,Flembers,,topic-is-PP,Graduated High-school,192099,1710584005027,1710583812928,male,english,Rebosen,Flembers,5c8406438d2bbf0017e4a416,65f570008e2b525b091a9078,65f560505a0fd1f1dad5a605,Rebosen causes Flembers.,14814,Flembers is associated with Rebosen.,second,first,0
2285,Can you tell me something about Themaglin?,22,Themaglin causes Ceflar.,Ceflar causes Themaglin.,Themaglin,,topic-is-PP,Graduated College,28550,1710584064210,1710584035660,male,english,Ceflar,Themaglin,5e1b795dc799223a3b447ada,65f570e084a132e10ed5b96a,65f560505a0fd1f1dad5a605,Themaglin causes Ceflar.,11552,Ceflar is associated with Themaglin.,first,second,0
2253,Can you tell me something about Rebosen?,22,Denoden causes Rebosen.,Rebosen causes Denoden.,Denoden,,topic-is-subject,Graduated High-school,45819,1710583911277,1710583865458,female,english,Rebosen,Denoden,5e846886c740a7000a1b4672,65f57034e5d2f31956d4917f,65f560505a0fd1f1dad5a605,Rebosen causes Denoden.,16135,Rebosen is associated with Denoden.,first,first,0
2259,Can you tell me something about Ceflar?,32,Themaglin causes Ceflar.,Ceflar causes Themaglin.,Themaglin,,topic-is-PP,Graduated High-school,36386,1710583957220,1710583920834,male,English,Ceflar,Themaglin,64203836cc2a802088981415,65f5706757c01c012863cfac,65f560505a0fd1f1dad5a605,Themaglin causes Ceflar.,16641,Themaglin is associated with Ceflar.,second,first,0
2292,Can you tell me something about Ceflar?,44,Themaglin causes Ceflar.,Ceflar causes Themaglin.,Themaglin,,topic-is-subject,Higher degree,75406,1710584091471,1710584016065,male,English,Themaglin,Ceflar,62a286a214a358e9d2c561a0,65f570c9baabda8dcaff06ef,65f560505a0fd1f1dad5a605,Ceflar causes Themaglin.,45676,Ceflar is associated with Themaglin.,second,second,0
2300,Can you tell me something about Flembers?,42,Denoden causes Flembers.,Flembers causes Denoden.,Denoden,,topic-is-subject,,48628,1710584133994,1710584085366,female,English ,Denoden,Flembers,5c7cd5020d75f00001f610e2,65f5710d1c411d371249d7b7,65f560505a0fd1f1dad5a605,Denoden causes Flembers.,20762,Flembers is associated with Denoden.,second,second,0
2301,Can you tell me something about Agoriv?,33,Agoriv causes Themaglin.,Themaglin causes Agoriv.,Agoriv,,topic-is-PP,Graduated High-school,38944,1710584138467,1710584099523,female,English ,Themaglin,Agoriv,5e349c07e2790c468d9775aa,65f5711d6dc788f69e715184,65f560505a0fd1f1dad5a605,Agoriv causes Themaglin.,22404,Themaglin is associated with Agoriv.,first,second,0
2316,Can you tell me something about Ceflar?,64,Agoriv causes Ceflar.,Ceflar causes Agoriv.,Agoriv,,topic-is-subject,Graduated College,35897,1710584198937,1710584163040,male,English ,Ceflar,Agoriv,57a7337e913c710001977341,65f5715ccf58d60ef65edd1b,65f560505a0fd1f1dad5a605,Agoriv causes Ceflar.,18589,Ceflar is associated with Agoriv.,first,first,0
2356,Can you tell me something about Ceflar?,52,Ceflar causes Denoden.,Denoden causes Ceflar.,Ceflar,,topic-is-subject,,77960,1710584353043,1710584275083,female,,Ceflar,Denoden,5f057c7f3f3bf0000b446bb9,65f571cb4d61aa2462a03467,65f560505a0fd1f1dad5a605,Denoden causes Ceflar.,42945,Ceflar is associated with Denoden.,first,first,0
2258,Can you tell me something about Agoriv?,41,Agoriv causes Rebosen.,Rebosen causes Agoriv.,Agoriv,,topic-is-PP,Graduated College,28956,1710583944543,1710583915587,female,English,Rebosen,Agoriv,59a28708617ca80001fcd2e2,65f570684d61aa2462a0342b,65f560505a0fd1f1dad5a605,Agoriv causes Rebosen.,16569,Rebosen is associated with Agoriv.,first,second,0
2261,Can you tell me something about Denoden?,44,Themaglin causes Denoden.,Denoden causes Themaglin.,Themaglin,,topic-is-PP,Higher degree,56937,1710583960878,1710583903941,male,English,Themaglin,Denoden,612d18baf58abea6585a18e7,65f57055d0dc4e028e16441f,65f560505a0fd1f1dad5a605,Denoden causes Themaglin.,32951,Themaglin is associated with Denoden.,first,second,0
2267,Can you tell me something about Denoden?,38,Denoden causes Ceflar.,Ceflar causes Denoden.,Denoden,,topic-is-subject,Higher degree,36476,1710583995015,1710583958539,female,English ,Denoden,Ceflar,63e54b3888fade79c84ea588,65f5708f2f7c9ce94d0bf836,65f560505a0fd1f1dad5a605,Denoden causes Ceflar.,16607,Denoden is associated with Ceflar.,first,first,0
2268,Can you tell me something about Agoriv?,53,Ceflar causes Agoriv.,Agoriv causes Ceflar.,Ceflar,,topic-is-PP,Graduated College,60469,1710583994570,1710583934101,female,English,Agoriv,Ceflar,5e4db49d96e3c32079f64790,65f5707c5754b209484d0f26,65f560505a0fd1f1dad5a605,Agoriv causes Ceflar.,33798,Ceflar is associated with Agoriv.,second,first,0
2286,Can you tell me something about Rebosen?,40,Rebosen causes Ceflar.,Ceflar causes Rebosen.,Rebosen,,topic-is-subject,Higher degree,55114,1710584070137,1710584015023,male,English,Rebosen,Ceflar,6161876c34b26fd00653a6fb,65f570c88e2b525b091a90b7,65f560505a0fd1f1dad5a605,Ceflar causes Rebosen.,32373,Rebosen is associated with Ceflar.,first,first,0
2290,Can you tell me something about Ceflar?,23,Ceflar causes Themaglin.,Themaglin causes Ceflar.,Ceflar,,topic-is-PP,Higher degree,38608,1710584103757,1710584065149,female,English,Themaglin,Ceflar,5ec83217e7e29110f1f1cde0,65f570aba163a187260c01f7,65f560505a0fd1f1dad5a605,Ceflar causes Themaglin.,21470,Themaglin is associated with Ceflar.,first,second,0
2294,Can you tell me something about Ceflar?,55,Ceflar causes Flembers.,Flembers causes Ceflar.,Ceflar,,topic-is-PP,Graduated College,109250,1710584107691,1710583998441,female,British English,Ceflar,Flembers,571fdcb14b8ecc0013c24fcb,65f570bcc0917460779ce7d5,65f560505a0fd1f1dad5a605,Ceflar causes Flembers.,55752,Flembers is associated with Ceflar.,second,first,0
2313,Can you tell me something about Agoriv?,60,Agoriv causes Themaglin.,Themaglin causes Agoriv.,Agoriv,The answers did not make sense to me.,topic-is-PP,Graduated College,118469,1710584189182,1710584070713,female,English,Themaglin,Agoriv,633a9edbf27eaa16efef242f,65f570fd77af580afc400cc4,65f560505a0fd1f1dad5a605,Themaglin causes Agoriv.,64083,Themaglin is associated with Agoriv.,first,second,0
2336,Can you tell me something about Agoriv?,35,Denoden causes Agoriv.,Agoriv causes Denoden.,Denoden,,topic-is-subject,Higher degree,58191,1710584289863,1710584231672,male,English,Agoriv,Denoden,5c742ed3b80b460016bd0361,65f5719ac25233291cc1389b,65f560505a0fd1f1dad5a605,Denoden causes Agoriv.,32443,Agoriv is associated with Denoden.,first,first,0
2280,Can you tell me something about Rebosen?,62,Ceflar causes Rebosen.,Rebosen causes Ceflar.,Ceflar,,topic-is-subject,Graduated College,75358,1710584028182,1710583952824,female,english,Ceflar,Rebosen,61711d5d5eeb6ccab6055d94,65f570851147bc02884a09b7,65f560505a0fd1f1dad5a605,Rebosen causes Ceflar.,38711,Rebosen is associated with Ceflar.,second,second,0
2282,Can you tell me something about Agoriv?,32,Denoden causes Agoriv.,Agoriv causes Denoden.,Denoden,,topic-is-subject,Graduated High-school,51145,1710584039037,1710583987892,female,English,Denoden,Agoriv,65956a59c56d234825654762,65f570acc0917460779ce7d0,65f560505a0fd1f1dad5a605,Agoriv causes Denoden.,30720,Agoriv is associated with Denoden.,second,second,0
2322,Can you tell me something about Themaglin?,28,Rebosen causes Themaglin.,Themaglin causes Rebosen.,Rebosen,,topic-is-subject,Graduated High-school,46978,1710584224642,1710584177664,male,English,Rebosen,Themaglin,62fb7ad9555e50d90fb713e8,65f5716b5e08f6ab54dff41f,65f560505a0fd1f1dad5a605,Rebosen causes Themaglin.,19350,Themaglin is associated with Rebosen.,second,second,0
2324,Can you tell me something about Rebosen?,37,Rebosen causes Agoriv.,Agoriv causes Rebosen.,Rebosen,,topic-is-subject,Higher degree,56990,1710584235272,1710584178282,male,English,Rebosen,Agoriv,647e06e4564c6d08e99046a2,65f5716d762a07b50be81ea4,65f560505a0fd1f1dad5a605,Agoriv causes Rebosen.,30066,Rebosen is associated with Agoriv.,first,first,0
2325,Can you tell me something about Themaglin?,48,Themaglin causes Agoriv.,Agoriv causes Themaglin.,Themaglin,,topic-is-subject,Graduated High-school,30903,1710584236010,1710584205107,male,english,Agoriv,Themaglin,57e7b82b21d77800018e51fe,65f5718b4f9d8d272d90d489,65f560505a0fd1f1dad5a605,Agoriv causes Themaglin.,17630,Themaglin is associated with Agoriv.,second,second,0
2334,Can you tell me something about Themaglin?,65,Flembers causes Themaglin.,Themaglin causes Flembers.,Flembers,No comments,topic-is-subject,Graduated College,71920,1710584268010,1710584196091,male,English,Themaglin,Flembers,5d21aed085192700013a5282,65f57181e5d2f31956d491e3,65f560505a0fd1f1dad5a605,Flembers causes Themaglin.,30958,Themaglin is associated with Flembers.,first,first,0
2341,Can you tell me something about Rebosen?,47,Themaglin causes Rebosen.,Rebosen causes Themaglin.,Themaglin,,topic-is-subject,Graduated College,55449,1710584317605,1710584262156,female,English,Themaglin,Rebosen,5b76d5edaa4329000173a465,65f571ac7f5b498314e14232,65f560505a0fd1f1dad5a605,Rebosen causes Themaglin.,30057,Rebosen is associated with Themaglin.,second,second,0
2283,Can you tell me something about Denoden?,33,Denoden causes Flembers.,Flembers causes Denoden.,Denoden,,topic-is-PP,Higher degree,45372,1710584058980,1710584013608,female,english,Flembers,Denoden,5ae1dab78ee5bf00018c8239,65f570c1cf58d60ef65edcf7,65f560505a0fd1f1dad5a605,Flembers causes Denoden.,28668,Flembers is associated with Denoden.,first,second,0
2287,Can you tell me something about Denoden?,33,Agoriv causes Denoden.,Denoden causes Agoriv.,Agoriv,,topic-is-PP,Higher degree,55630,1710584070856,1710584015226,male,English,Denoden,Agoriv,5e21005493a6893fd2c7dde4,65f570c868230ec372cd6806,65f560505a0fd1f1dad5a605,Denoden causes Agoriv.,21199,Agoriv is associated with Denoden.,second,first,0
2311,Can you tell me something about Flembers?,27,Ceflar causes Flembers.,Flembers causes Ceflar.,Ceflar,,topic-is-subject,Graduated College,117327,1710584185506,1710584068179,female,English ,Flembers,Ceflar,5ec3a81bc1172f212ae916c5,65f570fdaa9026db59ebf353,65f560505a0fd1f1dad5a605,Ceflar causes Flembers.,28163,Flembers is associated with Ceflar.,first,first,0
2340,Can you tell me something about Denoden?,71,Denoden causes Flembers.,Flembers causes Denoden.,Denoden,,topic-is-subject,Higher degree,57551,1710584312631,1710584255089,female,English,Denoden,Flembers,5f1c6f60ed2efa4ff67399f4,65f571b4e5d2f31956d491f2,65f560505a0fd1f1dad5a605,Denoden causes Flembers.,30047,Denoden is associated with Flembers.,first,first,0
2346,Can you tell me something about Themaglin?,62,Flembers causes Themaglin.,Themaglin causes Flembers.,Flembers,Thanks for the survey.,topic-is-subject,Graduated High-school,48984,1710584326977,1710584277993,male,ENGLISH,Themaglin,Flembers,5ba3be96258e340001cebb06,65f571cdb2471d94ad38df06,65f560505a0fd1f1dad5a605,Flembers causes Themaglin.,15976,Themaglin is associated with Flembers.,first,first,0
2347,Can you tell me something about Denoden?,58,Denoden causes Rebosen.,Rebosen causes Denoden.,Denoden,,topic-is-PP,Higher degree,37761,1710584329504,1710584291743,female,English,Rebosen,Denoden,5815a5f000b325000184db51,65f571db63f627ecf1af0b93,65f560505a0fd1f1dad5a605,Denoden causes Rebosen.,15830,Rebosen is associated with Denoden.,first,second,0
2348,Can you tell me something about Themaglin?,57,Rebosen causes Themaglin.,Themaglin causes Rebosen.,Rebosen,,topic-is-PP,Graduated High-school,76336,1710584331591,1710584255255,female,English ,Rebosen,Themaglin,646cac558e626c3b43d510b1,65f571ac1b19a041bbde1b0d,65f560505a0fd1f1dad5a605,Themaglin causes Rebosen.,37927,Rebosen is associated with Themaglin.,first,second,0
2349,Can you tell me something about Rebosen?,37,Rebosen causes Agoriv.,Agoriv causes Rebosen.,Rebosen,,topic-is-subject,Graduated High-school,57266,1710584346132,1710584288866,female,,Rebosen,Agoriv,5c41bfebf7c8890001d0947b,65f571db3cc1862af61a9cb7,65f560505a0fd1f1dad5a605,Rebosen causes Agoriv.,26629,Rebosen is associated with Agoriv.,first,first,0
2284,Can you tell me something about Agoriv?,31,Agoriv causes Flembers.,Flembers causes Agoriv.,Agoriv,,topic-is-subject,Higher degree,45889,1710584059912,1710584014023,male,English (UK) ,Flembers,Agoriv,60f9c455fbb032d20d4f88ee,65f570c3762a07b50be81e7c,65f560505a0fd1f1dad5a605,Agoriv causes Flembers.,24974,Agoriv is associated with Flembers.,second,second,0
2289,Can you tell me something about Themaglin?,48,Themaglin causes Flembers.,Flembers causes Themaglin.,Themaglin,,topic-is-PP,Graduated College,65589,1710584076620,1710584011031,male,english,Flembers,Themaglin,6320cfe2d0cbd240bb5532d9,65f570c25754b209484d0f3c,65f560505a0fd1f1dad5a605,Themaglin causes Flembers.,37312,Flembers is associated with Themaglin.,first,second,0
2293,Can you tell me something about Rebosen?,40,Rebosen causes Agoriv.,Agoriv causes Rebosen.,Rebosen,,topic-is-subject,Graduated College,77703,1710584094120,1710584016417,male,English,Rebosen,Agoriv,5d588e3c7e1b9500018ae948,65f570cac4a4cbdb07767de4,65f560505a0fd1f1dad5a605,Agoriv causes Rebosen.,50328,Rebosen is associated with Agoriv.,first,first,0
2295,Can you tell me something about Rebosen?,27,Rebosen causes Denoden.,Denoden causes Rebosen.,Rebosen,,topic-is-subject,Graduated College,60516,1710584109785,1710584049269,female,English,Denoden,Rebosen,5c27963dc6a1210001b72daf,65f570d8ac224650dd5edca5,65f560505a0fd1f1dad5a605,Denoden causes Rebosen.,34180,Rebosen is associated with Denoden.,second,second,0
2296,Can you tell me something about Flembers?,59,Flembers causes Rebosen.,Rebosen causes Flembers.,Flembers,,topic-is-PP,Graduated College,464334,1710584110558,1710583646224,female,English ,Flembers,Rebosen,5f5a4e1f3778490d3e6d1652,65f56f504c70df44e4ce32ae,65f560505a0fd1f1dad5a605,Flembers causes Rebosen.,389873,Rebosen is associated with Flembers.,second,first,0
2302,Can you tell me something about Agoriv?,31,Agoriv causes Themaglin.,Themaglin causes Agoriv.,Agoriv,,topic-is-PP,Graduated College,59525,1710584145853,1710584086328,female,English ,Agoriv,Themaglin,5df9fe1d7caa1e75418c295d,65f5710edc148945f0f0959e,65f560505a0fd1f1dad5a605,Themaglin causes Agoriv.,35892,Themaglin is associated with Agoriv.,second,first,0
2303,Can you tell me something about Denoden?,25,Denoden causes Flembers.,Flembers causes Denoden.,Denoden,,topic-is-PP,Graduated College,61678,1710584160835,1710584099157,female,english,Flembers,Denoden,6062d9224d8d934d3f085245,65f57115e5d2f31956d491c4,65f560505a0fd1f1dad5a605,Denoden causes Flembers.,17111,Flembers is associated with Denoden.,first,second,0
2307,Can you tell me something about Rebosen?,48,Rebosen causes Ceflar.,Ceflar causes Rebosen.,Rebosen,,topic-is-subject,Graduated High-school,78553,1710584168810,1710584090257,male,English,Rebosen,Ceflar,61090a2f9a9df0c7536b60e3,65f571115754b209484d0f4e,65f560505a0fd1f1dad5a605,Rebosen causes Ceflar.,44213,Rebosen is associated with Ceflar.,first,first,0
2323,Can you tell me something about Agoriv?,56,Ceflar causes Agoriv.,Agoriv causes Ceflar.,Ceflar,,topic-is-subject,,92709,1710584231143,1710584138434,female,English,Agoriv,Ceflar,5ae4e06dc67d830001ce8122,65f5714263f627ecf1af0b77,65f560505a0fd1f1dad5a605,Ceflar causes Agoriv.,50051,Agoriv is associated with Ceflar.,first,first,0
2298,Can you tell me something about Flembers?,35,Flembers causes Agoriv.,Agoriv causes Flembers.,Flembers,,topic-is-subject,Graduated College,31562,1710584129558,1710584097996,male,English,Agoriv,Flembers,608d74791c7dbdfe879575d9,65f5711ca4bcfa4e229ced69,65f560505a0fd1f1dad5a605,Flembers causes Agoriv.,14577,Flembers is associated with Agoriv.,second,second,0
2318,Can you tell me something about Themaglin?,45,Themaglin causes Flembers.,Flembers causes Themaglin.,Themaglin,,topic-is-PP,Graduated High-school,38088,1710584207692,1710584169604,male,English,Flembers,Themaglin,5a69d77a56585a0001633482,65f571688a3cb154ab512df9,65f560505a0fd1f1dad5a605,Themaglin causes Flembers.,17904,Flembers is associated with Themaglin.,first,second,0
2321,Can you tell me something about Themaglin?,47,Rebosen causes Themaglin.,Themaglin causes Rebosen.,Rebosen,,topic-is-PP,Graduated College,92295,1710584219880,1710584127585,female,English ,Rebosen,Themaglin,612266e2ea3c172619abba50,65f571364c70df44e4ce3325,65f560505a0fd1f1dad5a605,Themaglin causes Rebosen.,23476,Rebosen is associated with Themaglin.,first,second,0
2329,Can you tell me something about Agoriv?,58,Ceflar causes Agoriv.,Agoriv causes Ceflar.,Ceflar,,topic-is-PP,Graduated High-school,58293,1710584244407,1710584186114,male,English,Agoriv,Ceflar,5831a5d477c30e0001e7ff57,65f5717615749b705e093492,65f560505a0fd1f1dad5a605,Agoriv causes Ceflar.,33424,Ceflar is associated with Agoriv.,second,first,0
2330,Can you tell me something about Rebosen?,21,Flembers causes Rebosen.,Rebosen causes Flembers.,Flembers,,topic-is-subject,Graduated High-school,59521,1710584249430,1710584189909,female,English,Flembers,Rebosen,5ffaf3d17613844cc2ad6f6e,65f57179a4fe5d0913280fcd,65f560505a0fd1f1dad5a605,Flembers causes Rebosen.,14368,Rebosen is associated with Flembers.,second,second,0
2332,Can you tell me something about Rebosen?,37,Rebosen causes Flembers.,Flembers causes Rebosen.,Rebosen,,topic-is-subject,Higher degree,33621,1710584266623,1710584233003,female,English,Rebosen,Flembers,60eb11e45f3e9cb0ae58a090,65f571a0aa9026db59ebf37f,65f560505a0fd1f1dad5a605,Flembers causes Rebosen.,18193,Rebosen is associated with Flembers.,first,first,0
2333,Can you tell me something about Ceflar?,59,Rebosen causes Ceflar.,Ceflar causes Rebosen.,Rebosen,,topic-is-subject,Graduated High-school,36753,1710584265846,1710584229093,female,English,Ceflar,Rebosen,5ea096efef1e8807aafbdc22,65f5719c8a3cb154ab512e04,65f560505a0fd1f1dad5a605,Ceflar causes Rebosen.,20765,Ceflar is associated with Rebosen.,first,first,0
2337,Can you tell me something about Themaglin?,50,Denoden causes Themaglin.,Themaglin causes Denoden.,Denoden,,topic-is-PP,Graduated High-school,76333,1710584290508,1710584214175,female,British,Denoden,Themaglin,5baea3a3b8cbf600017a7727,65f5719298fe086877d5b3fc,65f560505a0fd1f1dad5a605,Themaglin causes Denoden.,59563,Denoden is associated with Themaglin.,first,second,0
2305,Can you tell me something about Denoden?,31,Rebosen causes Denoden.,Denoden causes Rebosen.,Rebosen,,topic-is-PP,Higher degree,34350,1710584162659,1710584128309,male,,Denoden,Rebosen,5f305c9cf7fabe4adaf0de5d,65f571372466df97bed462a1,65f560505a0fd1f1dad5a605,Denoden causes Rebosen.,19324,Rebosen is associated with Denoden.,second,first,0
2308,Can you tell me something about Ceflar?,34,Rebosen causes Ceflar.,Ceflar causes Rebosen.,Rebosen,,topic-is-subject,Graduated College,32605,1710584200408,1710584167803,female,English,Ceflar,Rebosen,5f88a9e10b3478081e131706,65f57145b6cb0b088738e19e,65f560505a0fd1f1dad5a605,Rebosen causes Ceflar.,16367,Ceflar is associated with Rebosen.,first,first,0
2317,Can you tell me something about Rebosen?,27,Denoden causes Rebosen.,Rebosen causes Denoden.,Denoden,,topic-is-PP,Graduated College,26116,1710584202939,1710584176823,female,English,Denoden,Rebosen,5a7c684217ef350001703d05,65f571682466df97bed462b7,65f560505a0fd1f1dad5a605,Denoden causes Rebosen.,11821,Denoden is associated with Rebosen.,first,second,0
2320,Can you tell me something about Rebosen?,35,Agoriv causes Rebosen.,Rebosen causes Agoriv.,Agoriv,,topic-is-PP,Graduated High-school,105299,1710584218276,1710584112977,female,english,Rebosen,Agoriv,56b10faa6399f90011da710d,65f5712becfcc204cbf0b4b9,65f560505a0fd1f1dad5a605,Rebosen causes Agoriv.,52930,Agoriv is associated with Rebosen.,second,first,0
2344,Can you tell me something about Rebosen?,27,Rebosen causes Ceflar.,Ceflar causes Rebosen.,Rebosen,,topic-is-PP,Graduated College,85569,1710584323837,1710584238268,female,English,Rebosen,Ceflar,5e46705ebd0d1a14182deab0,65f571a6aa9026db59ebf384,65f560505a0fd1f1dad5a605,Rebosen causes Ceflar.,54348,Ceflar is associated with Rebosen.,second,first,0
2345,Can you tell me something about Ceflar?,52,Rebosen causes Ceflar.,Ceflar causes Rebosen.,Rebosen,,topic-is-subject,Graduated High-school,68194,1710584271921,1710584203727,male,English,Ceflar,Rebosen,5dc03ef8e8702f46d35d3254,65f571bc6dc788f69e7151b2,65f560505a0fd1f1dad5a605,Ceflar causes Rebosen.,47408,Ceflar is associated with Rebosen.,first,first,0
2355,Can you tell me something about Themaglin?,30,Themaglin causes Denoden.,Denoden causes Themaglin.,Themaglin,,topic-is-subject,Graduated High-school,47796,1710584352064,1710584304268,female,English,Denoden,Themaglin,5b7052257ec71a0001469d78,65f571d94f9d8d272d90d497,65f560505a0fd1f1dad5a605,Denoden causes Themaglin.,22722,Themaglin is associated with Denoden.,second,second,0
2310,Can you tell me something about Rebosen?,71,Rebosen causes Themaglin.,Themaglin causes Rebosen.,Rebosen,n/a,topic-is-subject,Graduated College,66884,1710584181201,1710584114317,male,english,Themaglin,Rebosen,599614af004c4f0001cc8642,65f571224c70df44e4ce331f,65f560505a0fd1f1dad5a605,Themaglin causes Rebosen.,33480,Rebosen is associated with Themaglin.,second,second,0
2319,Can you tell me something about Themaglin?,37,Agoriv causes Themaglin.,Themaglin causes Agoriv.,Agoriv,,topic-is-subject,Graduated High-school,70072,1710584209519,1710584139447,female,English,Agoriv,Themaglin,5e950a4aef32a3375999451e,65f57144d0dc4e028e16445d,65f560505a0fd1f1dad5a605,Themaglin causes Agoriv.,37546,Themaglin is associated with Agoriv.,second,second,0
2326,Can you tell me something about Agoriv?,31,Agoriv causes Flembers.,Flembers causes Agoriv.,Agoriv,,topic-is-subject,Higher degree,40887,1710584240301,1710584199414,female,English,Flembers,Agoriv,5e985344317f26057adeb06e,65f5718251100c7020887e82,65f560505a0fd1f1dad5a605,Flembers causes Agoriv.,22585,Agoriv is associated with Flembers.,second,second,0
2327,Can you tell me something about Rebosen?,45,Rebosen causes Themaglin.,Themaglin causes Rebosen.,Rebosen,,topic-is-subject,Graduated College,46241,1710584244187,1710584197946,female,english,Themaglin,Rebosen,60fdbd971aab70ac228ed016,65f5717c64065b50fae253cc,65f560505a0fd1f1dad5a605,Themaglin causes Rebosen.,26074,Rebosen is associated with Themaglin.,second,second,0
2351,Can you tell me something about Flembers?,1845,Agoriv causes Flembers.,Flembers causes Agoriv.,Agoriv,,topic-is-subject,Graduated College,77723,1710584350205,1710584272482,male,English,Agoriv,Flembers,62d2b86ed12d650ea7268dd7,65f571cac2c3b78c8ed5a88d,65f560505a0fd1f1dad5a605,Flembers causes Agoriv.,49003,Flembers is associated with Agoriv.,second,second,0
2314,Can you tell me something about Denoden?,52,Themaglin causes Denoden.,Denoden causes Themaglin.,Themaglin,,topic-is-subject,Graduated High-school,38180,1710584194546,1710584156366,female,English ,Themaglin,Denoden,645a178964bdf1b4de1fc79f,65f571562466df97bed462b2,65f560505a0fd1f1dad5a605,Denoden causes Themaglin.,20437,Denoden is associated with Themaglin.,second,second,0
2315,Can you tell me something about Denoden?,55,Denoden causes Flembers.,Flembers causes Denoden.,Denoden,,topic-is-PP,Higher degree,137414,1710584200534,1710584063120,female,English ,Flembers,Denoden,5c7700692ceba0001668a988,65f570f7d2c2d2a4ff76615e,65f560505a0fd1f1dad5a605,Flembers causes Denoden.,97749,Flembers is associated with Denoden.,first,second,0
2350,Can you tell me something about Themaglin?,25,Flembers causes Themaglin.,Themaglin causes Flembers.,Flembers,,topic-is-subject,Graduated High-school,46171,1710584349081,1710584302910,male,English,Themaglin,Flembers,5fcae14b97b7d67e1304d996,65f571e8e5d2f31956d49208,65f560505a0fd1f1dad5a605,Flembers causes Themaglin.,20301,Themaglin is associated with Flembers.,first,first,0
2357,Can you tell me something about Denoden?,55,Denoden causes Agoriv.,Agoriv causes Denoden.,Denoden,,topic-is-PP,Graduated High-school,71812,1710584351906,1710584280094,male,English,Denoden,Agoriv,62696bb2397d5c5496064e56,65f571c768230ec372cd6843,65f560505a0fd1f1dad5a605,Denoden causes Agoriv.,45267,Agoriv is associated with Denoden.,second,first,0
2331,Can you tell me something about Flembers?,33,Flembers causes Ceflar.,Ceflar causes Flembers.,Flembers,,topic-is-subject,Graduated High-school,40525,1710584260193,1710584219668,male,English,Ceflar,Flembers,58a9acb966e4640001c53a7f,65f5719a1c411d371249d7d6,65f560505a0fd1f1dad5a605,Ceflar causes Flembers.,27600,Flembers is associated with Ceflar.,second,second,0
2335,Can you tell me something about Denoden?,25,Denoden causes Ceflar.,Ceflar causes Denoden.,Denoden,,topic-is-PP,Graduated High-school,39314,1710584273356,1710584234042,female,english,Ceflar,Denoden,5c98277316743e0016280919,65f571a6a163a187260c023b,65f560505a0fd1f1dad5a605,Denoden causes Ceflar.,18216,Ceflar is associated with Denoden.,first,second,0
2352,Can you tell me something about Agoriv?,47,Flembers causes Agoriv.,Agoriv causes Flembers.,Flembers,,topic-is-PP,Graduated College,40640,1710584349912,1710584309272,male,english,Agoriv,Flembers,5c780b32f2fe9400169291fb,65f571ebaa9026db59ebf396,65f560505a0fd1f1dad5a605,Agoriv causes Flembers.,19015,Flembers is associated with Agoriv.,second,first,0
2338,Can you tell me something about Themaglin?,33,Themaglin causes Denoden.,Denoden causes Themaglin.,Themaglin,,topic-is-subject,Graduated College,96878,1710584300432,1710584203554,female,English ,Denoden,Themaglin,5aeb0b3fc9bb680001c52869,65f5717da4bcfa4e229ced86,65f560505a0fd1f1dad5a605,Denoden causes Themaglin.,51205,Themaglin is associated with Denoden.,second,second,0
2339,Can you tell me something about Agoriv?,69,Rebosen causes Agoriv.,Agoriv causes Rebosen.,Rebosen,,topic-is-subject,Graduated High-school,76801,1710584307571,1710584230770,female,English,Rebosen,Agoriv,5aa29a476219a30001f5774c,65f5719415749b705e093496,65f560505a0fd1f1dad5a605,Agoriv causes Rebosen.,28904,Agoriv is associated with Rebosen.,second,second,0
2343,Can you tell me something about Themaglin?,37,Flembers causes Themaglin.,Themaglin causes Flembers.,Flembers,,topic-is-subject,Graduated High-school,45807,1710584323176,1710584277369,male,ENGLISH,Themaglin,Flembers,5f257490df170d20a22d3d96,65f571cce11b7bb4e9b196ee,65f560505a0fd1f1dad5a605,Themaglin causes Flembers.,25138,Themaglin is associated with Flembers.,first,first,0
2342,Can you tell me something about Denoden?,25,Denoden causes Ceflar.,Ceflar causes Denoden.,Denoden,,topic-is-PP,Higher degree,55764,1710584317565,1710584261801,female,English ,Denoden,Ceflar,5dae21b2232c620011d6a06e,65f571bd1c03bff8caa1eedf,65f560505a0fd1f1dad5a605,Denoden causes Ceflar.,32646,Ceflar is associated with Denoden.,second,first,0
2353,Can you tell me something about Themaglin?,45,Themaglin causes Rebosen.,Rebosen causes Themaglin.,Themaglin,,topic-is-PP,Higher degree,35773,1710584350865,1710584315092,female,english,Rebosen,Themaglin,5ed18d516f7b8e0e377758fa,65f571f557c01c012863cffb,65f560505a0fd1f1dad5a605,Themaglin causes Rebosen.,20029,Rebosen is associated with Themaglin.,first,second,0
2354,Can you tell me something about Flembers?,48,Agoriv causes Flembers.,Flembers causes Agoriv.,Agoriv,,topic-is-PP,Graduated College,47213,1710584351833,1710584304621,female,English,Flembers,Agoriv,60963d03173192b4116c1fae,65f571ea3cc1862af61a9cbc,65f560505a0fd1f1dad5a605,Flembers causes Agoriv.,24565,Agoriv is associated with Flembers.,second,first,0
2358,Can you tell me something about Agoriv?,58,Agoriv causes Flembers.,Flembers causes Agoriv.,Agoriv,,topic-is-subject,Higher degree,81629,1710584359889,1710584278260,female,,Agoriv,Flembers,64bbb5ecb5bb79d0fba32ed8,65f571c5a94897240363d504,65f560505a0fd1f1dad5a605,Flembers causes Agoriv.,35057,Agoriv is associated with Flembers.,first,first,0
2359,Can you tell me something about Denoden?,43,Flembers causes Denoden.,Denoden causes Flembers.,Flembers,,topic-is-subject,Graduated High-school,56986,1710584369107,1710584312121,male,english,Denoden,Flembers,614bbeb72b50ece145ad86ee,65f571f0a163a187260c024e,65f560505a0fd1f1dad5a605,Flembers causes Denoden.,24104,Denoden is associated with Flembers.,first,first,0
2360,Can you tell me something about Rebosen?,47,Rebosen causes Themaglin.,Themaglin causes Rebosen.,Rebosen,,topic-is-subject,Higher degree,51099,1710584384868,1710584333769,male,English,Themaglin,Rebosen,568bafa939a70e000c57ffa5,65f571fb1b19a041bbde1b23,65f560505a0fd1f1dad5a605,Rebosen causes Themaglin.,21136,Rebosen is associated with Themaglin.,second,second,0
2361,Can you tell me something about Themaglin?,34,Ceflar causes Themaglin.,Themaglin causes Ceflar.,Ceflar,,topic-is-subject,Graduated High-school,146159,1710584365938,1710584219779,female,English,Themaglin,Ceflar,5b0cd94330d5620001555be8,65f571a6f1470a09b64cfbd2,65f560505a0fd1f1dad5a605,Ceflar causes Themaglin.,107712,Themaglin is associated with Ceflar.,first,first,0
2362,Can you tell me something about Themaglin?,50,Ceflar causes Themaglin.,Themaglin causes Ceflar.,Ceflar,,topic-is-PP,Higher degree,63447,1710584396894,1710584333447,female,english,Themaglin,Ceflar,647f87dfe5161fce9adc1b97,65f571f65754b209484d0f97,65f560505a0fd1f1dad5a605,Themaglin causes Ceflar.,41920,Ceflar is associated with Themaglin.,second,first,0
2363,Can you tell me something about Themaglin?,56,Flembers causes Themaglin.,Themaglin causes Flembers.,Flembers,,topic-is-subject,Graduated High-school,68451,1710584408040,1710584339589,male,english,Flembers,Themaglin,610a879e6500d1d653b3da54,65f571fccf58d60ef65edd4a,65f560505a0fd1f1dad5a605,Flembers causes Themaglin.,29110,Themaglin is associated with Flembers.,second,second,0
2364,Can you tell me something about Flembers?,27,Rebosen causes Flembers.,Flembers causes Rebosen.,Rebosen,"I tried to gather an answer by substituting the words for other things. So, Flembers (I used 'Bad Boilers') and the second word for 'Carbon Monoxide'. Made more sense that way, to me, at least.",topic-is-subject,Graduated College,142203,1710584420369,1710584278166,male,English,Rebosen,Flembers,59c253a20c5fc80001193d9b,65f571ceac224650dd5edcd5,65f560505a0fd1f1dad5a605,Flembers causes Rebosen.,38374,Flembers is associated with Rebosen.,second,second,0
2365,Can you tell me something about Denoden?,65,Rebosen causes Denoden.,Denoden causes Rebosen.,Rebosen,"Neither statement is necesarrily ""true"", correlation is not causation, I just picked one at random.",topic-is-subject,Graduated College,279118,1710584448872,1710584169754,male,English,Denoden,Rebosen,5a913c1e6475f900019f8e5c,65f57165c9dc2e4a90e01cf6,65f560505a0fd1f1dad5a605,Rebosen causes Denoden.,72095,Denoden is associated with Rebosen.,first,first,0
2366,Can you tell me something about Ceflar?,30,Ceflar causes Flembers.,Flembers causes Ceflar.,Ceflar,,topic-is-subject,Higher degree,160243,1710584460853,1710584300610,male,English,Ceflar,Flembers,5c6adf2675b3d50001b8af1d,65f571e651100c7020887e91,65f560505a0fd1f1dad5a605,Flembers causes Ceflar.,135381,Ceflar is associated with Flembers.,first,first,0
2367,Can you tell me something about Denoden?,35,Ceflar causes Denoden.,Denoden causes Ceflar.,Ceflar,,topic-is-PP,Graduated College,45744,1710584868214,1710584822470,female,English ,Ceflar,Denoden,616fd2048c982b1d27653870,65f573e13a4085dd0b283fb2,65f560505a0fd1f1dad5a605,Denoden causes Ceflar.,25711,Ceflar is associated with Denoden.,first,second,0
