submission_id,QUD,QUDTarget,age,choice1,choice2,choiceNameFirst,comments,education,experiment_duration,experiment_end_time,experiment_start_time,gender,languages,name1,name2,prolific_pid,prolific_session_id,prolific_study_id,response,responseTime,statement,statementFirst,treatment,trialNR
1836,I was surprised to see Flembers in yesterday's sample.,first,32,Flembers causes Themaglin.,Themaglin causes Flembers.,Flembers,,Graduated High-school,36561,1709909200891,1709909164330,male,English,Flembers,Themaglin,5e95d0925f33bb028f4cd6e5,65eb24a59a2b3ae0a65db503,65eb1de69438b51c1c55a653,Flembers causes Themaglin.,20320,Flembers is associated with Themaglin.,first,observation,0
1844,I was surprised to see Rebosen in yesterday's sample.,first,39,Rebosen causes Agoriv.,Agoriv causes Rebosen.,Rebosen,,Higher degree,38925,1709909235905,1709909196980,female,English,Rebosen,Agoriv,62d6e100609ad53fa5d91e8b,65eb24c737857445d03b6f07,65eb1de69438b51c1c55a653,Agoriv causes Rebosen.,15717,Rebosen is associated with Agoriv.,first,observation,0
1843,I am surprised that you think Ceflar should be removed from the samples.,first,70,Ceflar causes Denoden.,Denoden causes Ceflar.,Ceflar,none,Did not graduate High-school,134453,1709909232102,1709909097649,female,English,Ceflar,Denoden,5f2178ec626bc35254b5145e,65eb2455acf242f26d34a2e9,65eb1de69438b51c1c55a653,Ceflar causes Denoden.,75315,Ceflar is associated with Denoden.,first,avoidance,0
1884,I was surprised to see Denoden in yesterday's sample.,first,20,Flembers causes Denoden.,Denoden causes Flembers.,Flembers,,Graduated High-school,29820,1709909372410,1709909342590,male,,Denoden,Flembers,61210a179b370b4734d4adb9,65eb25595cc8b96eaa8ffb49,65eb1de69438b51c1c55a653,Flembers causes Denoden.,19318,Denoden is associated with Flembers.,first,observation,0
1846,I was surprised to see Denoden in yesterday's sample.,second,28,Denoden causes Agoriv.,Agoriv causes Denoden.,Denoden,N/a,Higher degree,60260,1709909244711,1709909184451,female,"English, Gujarati ",Agoriv,Denoden,634b26ce0aaab507fa36b71c,65eb24b95a255115383d97be,65eb1de69438b51c1c55a653,Agoriv causes Denoden.,26982,Denoden is associated with Agoriv.,second,observation,0
1860,I am surprised that you think Flembers should be removed from the samples.,first,61,Denoden causes Flembers.,Flembers causes Denoden.,Denoden,,Graduated High-school,121413,1709909304564,1709909183151,male,English,Flembers,Denoden,5be4c6f601b0c8000191b115,65eb24b827f782646fc94752,65eb1de69438b51c1c55a653,Denoden causes Flembers.,93039,Flembers is associated with Denoden.,first,avoidance,0
1869,I am surprised that you think Agoriv should be removed from the samples.,first,35,Denoden causes Agoriv.,Agoriv causes Denoden.,Denoden,,Higher degree,51901,1709909326291,1709909274390,female,English ,Agoriv,Denoden,5eff6fd3df28dd030b143249,65eb251471dabeb0c788c686,65eb1de69438b51c1c55a653,Agoriv causes Denoden.,31204,Agoriv is associated with Denoden.,first,avoidance,0
1850,I was surprised to see Themaglin in yesterday's sample.,second,56,Themaglin causes Agoriv.,Agoriv causes Themaglin.,Themaglin,,Graduated High-school,71010,1709909259543,1709909188533,male,english,Agoriv,Themaglin,5ca9f8926025570001c872f3,65eb24be27489ffafd1506e6,65eb1de69438b51c1c55a653,Agoriv causes Themaglin.,47872,Agoriv is associated with Themaglin.,first,observation,0
1852,I am surprised that you think Ceflar should be removed from the samples.,second,47,Rebosen causes Ceflar.,Ceflar causes Rebosen.,Rebosen,,Higher degree,80675,1709909274820,1709909194145,female,English ,Rebosen,Ceflar,616ab1b6df359dcb87a8b0e5,65eb24c1a49cf4ebb0d647dd,65eb1de69438b51c1c55a653,Rebosen causes Ceflar.,54131,Rebosen is associated with Ceflar.,first,avoidance,0
1856,I was surprised to see Denoden in yesterday's sample.,first,38,Flembers causes Denoden.,Denoden causes Flembers.,Flembers,,Higher degree,43667,1709909295069,1709909251402,male,english,Denoden,Flembers,5fd000fb59f1540347d18088,65eb24fc719bcd3081dc3c23,65eb1de69438b51c1c55a653,Denoden causes Flembers.,22664,Denoden is associated with Flembers.,first,observation,0
1853,I was surprised to see Rebosen in yesterday's sample.,first,29,Agoriv causes Rebosen.,Rebosen causes Agoriv.,Agoriv,,Graduated College,24604,1709909276546,1709909251942,male,English,Rebosen,Agoriv,605fa46fdafbf129160d1777,65eb24fe343a624ae4637e31,65eb1de69438b51c1c55a653,Agoriv causes Rebosen.,8335,Agoriv is associated with Rebosen.,second,observation,0
1859,I was surprised to see Flembers in yesterday's sample.,second,36,Flembers causes Agoriv.,Agoriv causes Flembers.,Flembers,,Higher degree,51495,1709909301629,1709909250134,female,,Agoriv,Flembers,5987753a644ea4000126f00a,65eb24f09a2b3ae0a65db523,65eb1de69438b51c1c55a653,Agoriv causes Flembers.,15902,Flembers is associated with Agoriv.,second,observation,0
1870,I was surprised to see Flembers in yesterday's sample.,second,19,Agoriv causes Flembers.,Flembers causes Agoriv.,Agoriv,,Graduated High-school,34361,1709909328060,1709909293699,female,English,Agoriv,Flembers,65030c046782881e902a5aaa,65eb2527393683b89f0b6665,65eb1de69438b51c1c55a653,Agoriv causes Flembers.,19384,Flembers is associated with Agoriv.,second,observation,0
1858,I am surprised that you think Rebosen should be removed from the samples.,first,34,Denoden causes Rebosen.,Rebosen causes Denoden.,Denoden,,Graduated College,42846,1709909297536,1709909254690,female,english,Rebosen,Denoden,63d3fbf6aca63e00ed85d00a,65eb25011e65702e0bcd8736,65eb1de69438b51c1c55a653,Rebosen causes Denoden.,28680,Denoden is associated with Rebosen.,second,avoidance,0
1861,I am surprised that you think Flembers should be removed from the samples.,first,60,Flembers causes Denoden.,Denoden causes Flembers.,Flembers,,Graduated College,121879,1709909305707,1709909183828,female,English,Flembers,Denoden,5eaeddb6a7e04f5af6b3e879,65eb24b275cd1ae288c97b01,65eb1de69438b51c1c55a653,Denoden causes Flembers.,82996,Denoden is associated with Flembers.,second,avoidance,0
1863,I am surprised that you think Denoden should be removed from the samples.,first,34,Flembers causes Denoden.,Denoden causes Flembers.,Flembers,,Graduated College,53529,1709909310660,1709909257131,female,English,Denoden,Flembers,57ceec6cfd01b20001d0251d,65eb250459debe6d7306e4fb,65eb1de69438b51c1c55a653,Denoden causes Flembers.,36313,Denoden is associated with Flembers.,first,avoidance,0
1864,I was surprised to see Agoriv in yesterday's sample.,first,30,Denoden causes Agoriv.,Agoriv causes Denoden.,Denoden,,Higher degree,48619,1709909315095,1709909266476,female,,Agoriv,Denoden,62aaffadcb6c41ad8f83639e,65eb250967998c58e15db4db,65eb1de69438b51c1c55a653,Denoden causes Agoriv.,37543,Denoden is associated with Agoriv.,second,observation,0
1865,I am surprised that you think Themaglin should be removed from the samples.,second,65,Themaglin causes Agoriv.,Agoriv causes Themaglin.,Themaglin,,Graduated High-school,66228,1709909320800,1709909254572,female,English,Agoriv,Themaglin,5ea313378e994c25658eae92,65eb24fccdfabf70006de2af,65eb1de69438b51c1c55a653,Themaglin causes Agoriv.,45426,Themaglin is associated with Agoriv.,second,avoidance,0
1759,I am surprised that you think Rebosen should be removed from the samples.,second,21,Ceflar causes Rebosen.,Rebosen causes Ceflar.,Ceflar,,Graduated College,29046,1709908343597,1709908314551,male,english,Ceflar,Rebosen,5d45e3bdf1d31800163cf999,65eb2155d9a4c26156dd2bd0,65eb1de69438b51c1c55a653,Rebosen causes Ceflar.,15472,Ceflar is associated with Rebosen.,first,avoidance,0
1762,I was surprised to see Ceflar in yesterday's sample.,first,32,Ceflar causes Denoden.,Denoden causes Ceflar.,Ceflar,,Graduated College,76732,1709908555351,1709908478619,male,English,Ceflar,Denoden,5ff108fb878eaa55718258c3,65eb21ed68a72de33a50912e,65eb1de69438b51c1c55a653,Denoden causes Ceflar.,46568,Denoden is associated with Ceflar.,second,observation,0
1763,I was surprised to see Ceflar in yesterday's sample.,first,50,Rebosen causes Ceflar.,Ceflar causes Rebosen.,Rebosen,,Graduated High-school,71674,1709908599544,1709908527870,female,English,Ceflar,Rebosen,6451843b5bbc08cb94e34ba3,65eb221aa1d8d921864afec2,65eb1de69438b51c1c55a653,Rebosen causes Ceflar.,33512,Rebosen is associated with Ceflar.,second,observation,0
1792,I am surprised that you think Themaglin should be removed from the samples.,first,49,Themaglin causes Flembers.,Flembers causes Themaglin.,Themaglin,,,46176,1709908915316,1709908869140,female,English,Themaglin,Flembers,63ee1884534ecc3f58e7bb8a,65eb2385e1893c264829b2ff,65eb1de69438b51c1c55a653,Themaglin causes Flembers.,25703,Themaglin is associated with Flembers.,first,avoidance,0
1804,I was surprised to see Flembers in yesterday's sample.,first,52,Denoden causes Flembers.,Flembers causes Denoden.,Denoden,,Graduated College,59938,1709908989945,1709908930007,male,English,Flembers,Denoden,654651ca7a889724c907f144,65eb23bbf5329f415161790d,65eb1de69438b51c1c55a653,Denoden causes Flembers.,30004,Denoden is associated with Flembers.,second,observation,0
1816,I am surprised that you think Rebosen should be removed from the samples.,second,29,Rebosen causes Flembers.,Flembers causes Rebosen.,Rebosen,,Graduated College,32356,1709909087889,1709909055533,female,English,Flembers,Rebosen,62e15ab08c4aa96b86650a06,65eb243a26c10df9e0cb2fe8,65eb1de69438b51c1c55a653,Rebosen causes Flembers.,16890,Rebosen is associated with Flembers.,second,avoidance,0
1760,I am surprised that you think Agoriv should be removed from the samples.,first,37,Denoden causes Agoriv.,Agoriv causes Denoden.,Denoden,none,Graduated College,43294,1709908398086,1709908354792,female,English,Agoriv,Denoden,6401b9015be1ce78bd94eb70,65eb217af17782988c99c97d,65eb1de69438b51c1c55a653,Denoden causes Agoriv.,22018,Denoden is associated with Agoriv.,second,avoidance,0
1769,I was surprised to see Flembers in yesterday's sample.,first,34,Flembers causes Ceflar.,Ceflar causes Flembers.,Flembers,,Higher degree,77912,1709908754344,1709908676432,male,English,Flembers,Ceflar,62a7989f3574ce6e0f17defe,65eb22bcff57a50080640e48,65eb1de69438b51c1c55a653,Flembers causes Ceflar.,54089,Ceflar is associated with Flembers.,second,observation,0
1771,I was surprised to see Denoden in yesterday's sample.,second,39,Rebosen causes Denoden.,Denoden causes Rebosen.,Rebosen,,Higher degree,73863,1709908756659,1709908682796,female,English,Rebosen,Denoden,611c162ea44ae208af89387f,65eb22c1b2d95c227bfe7e02,65eb1de69438b51c1c55a653,Rebosen causes Denoden.,45847,Rebosen is associated with Denoden.,first,observation,0
1774,I was surprised to see Themaglin in yesterday's sample.,first,80,Themaglin causes Flembers.,Flembers causes Themaglin.,Themaglin,,Did not graduate High-school,129812,1709908802021,1709908672209,female,english,Themaglin,Flembers,5d57d1dc914e310019cdfb9b,65eb22a34ca8ec310d4804cc,65eb1de69438b51c1c55a653,Flembers causes Themaglin.,67147,Themaglin is associated with Flembers.,first,observation,0
1798,I am surprised that you think Themaglin should be removed from the samples.,first,29,Ceflar causes Themaglin.,Themaglin causes Ceflar.,Ceflar,,Higher degree,28918,1709908961577,1709908932659,male,English,Themaglin,Ceflar,57f9238bc786ac00011ebc72,65eb23c3ad8823bedeb03733,65eb1de69438b51c1c55a653,Themaglin causes Ceflar.,14496,Themaglin is associated with Ceflar.,first,avoidance,0
1806,I am surprised that you think Flembers should be removed from the samples.,first,27,Flembers causes Themaglin.,Themaglin causes Flembers.,Flembers,,Higher degree,43604,1709908995601,1709908951997,male,English,Flembers,Themaglin,63f7cd81a09d25f6c1a73f43,65eb23d632c887872a07d34f,65eb1de69438b51c1c55a653,Flembers causes Themaglin.,24325,Themaglin is associated with Flembers.,second,avoidance,0
1761,I am surprised that you think Rebosen should be removed from the samples.,second,38,Rebosen causes Denoden.,Denoden causes Rebosen.,Rebosen,,Graduated High-school,103481,1709908501984,1709908398503,female,English ,Denoden,Rebosen,5cd86c0731d19f0001425a89,65eb21a746a37ea15396e718,65eb1de69438b51c1c55a653,Denoden causes Rebosen.,85675,Denoden is associated with Rebosen.,first,avoidance,0
1773,I was surprised to see Rebosen in yesterday's sample.,second,71,Rebosen causes Denoden.,Denoden causes Rebosen.,Rebosen,,Higher degree,68312,1709908795399,1709908727087,male,English,Denoden,Rebosen,5f75a669c9ebb3229be4a8db,65eb22ea96d3701edc35a9a1,65eb1de69438b51c1c55a653,Denoden causes Rebosen.,45788,Rebosen is associated with Denoden.,second,observation,0
1764,I am surprised that you think Rebosen should be removed from the samples.,first,23,Flembers causes Rebosen.,Rebosen causes Flembers.,Flembers,,Graduated High-school,61008,1709908633050,1709908572042,male,English,Rebosen,Flembers,5bf28a086d4c3e00014410f7,65eb224e5233217749e355de,65eb1de69438b51c1c55a653,Rebosen causes Flembers.,39541,Flembers is associated with Rebosen.,second,avoidance,0
1768,I am surprised that you think Flembers should be removed from the samples.,second,31,Flembers causes Ceflar.,Ceflar causes Flembers.,Flembers,,Graduated High-school,40494,1709908744286,1709908703792,male,English ,Ceflar,Flembers,60b38fdb547653a5887fd0f6,65eb22d2e4d48488bc2d0ad0,65eb1de69438b51c1c55a653,Flembers causes Ceflar.,23253,Flembers is associated with Ceflar.,second,avoidance,0
1765,I am surprised that you think Denoden should be removed from the samples.,first,50,Agoriv causes Denoden.,Denoden causes Agoriv.,Agoriv,,Higher degree,59913,1709908671098,1709908611185,female,English,Denoden,Agoriv,606ec7f98cb8b08a1c7620e0,65eb22602b4eb9cb0c20649f,65eb1de69438b51c1c55a653,Denoden causes Agoriv.,39892,Agoriv is associated with Denoden.,second,avoidance,0
1772,I was surprised to see Ceflar in yesterday's sample.,second,44,Ceflar causes Themaglin.,Themaglin causes Ceflar.,Ceflar,,Graduated College,71791,1709908787175,1709908715384,female,English,Themaglin,Ceflar,5d8669bd2efdc9001685c7ab,65eb22e3c6ce80fa96ba269d,65eb1de69438b51c1c55a653,Themaglin causes Ceflar.,48045,Themaglin is associated with Ceflar.,first,observation,0
1791,I am surprised that you think Themaglin should be removed from the samples.,first,25,Themaglin causes Denoden.,Denoden causes Themaglin.,Themaglin,,Graduated College,33671,1709908904302,1709908870631,female,"English, Japanese",Themaglin,Denoden,5ad3fc75b02aca00012739b4,65eb238114a4b1409ac97abb,65eb1de69438b51c1c55a653,Themaglin causes Denoden.,17464,Themaglin is associated with Denoden.,first,avoidance,0
1807,I was surprised to see Rebosen in yesterday's sample.,second,55,Rebosen causes Themaglin.,Themaglin causes Rebosen.,Rebosen,,Graduated College,59352,1709908999609,1709908940257,female,English,Themaglin,Rebosen,5eef5d8b98ebb54255812916,65eb23b92101655db282a4a6,65eb1de69438b51c1c55a653,Rebosen causes Themaglin.,33401,Themaglin is associated with Rebosen.,first,observation,0
1825,I was surprised to see Themaglin in yesterday's sample.,first,34,Themaglin causes Rebosen.,Rebosen causes Themaglin.,Themaglin,,Higher degree,56003,1709909133547,1709909077544,male,Englosh,Themaglin,Rebosen,58d15e3d2fc72000011f8dbc,65eb244ef4f6f323d482a4e0,65eb1de69438b51c1c55a653,Rebosen causes Themaglin.,38220,Rebosen is associated with Themaglin.,second,observation,0
1826,I am surprised that you think Flembers should be removed from the samples.,second,40,Denoden causes Flembers.,Flembers causes Denoden.,Denoden,,Graduated High-school,27588,1709909138528,1709909110940,female,english,Denoden,Flembers,59484cc8236bda0001d2696c,65eb247155264c2c144a106e,65eb1de69438b51c1c55a653,Flembers causes Denoden.,9533,Denoden is associated with Flembers.,first,avoidance,0
1766,I was surprised to see Themaglin in yesterday's sample.,first,32,Rebosen causes Themaglin.,Themaglin causes Rebosen.,Rebosen,,Higher degree,68513,1709908654973,1709908586460,male,"english, urdu",Themaglin,Rebosen,605b1abc47f5351342d9d6e6,65eb22612851870b4ed632b9,65eb1de69438b51c1c55a653,Themaglin causes Rebosen.,23995,Rebosen is associated with Themaglin.,second,observation,0
1770,I was surprised to see Agoriv in yesterday's sample.,second,18,Agoriv causes Rebosen.,Rebosen causes Agoriv.,Agoriv,,Graduated High-school,33143,1709908756400,1709908723257,female,English,Rebosen,Agoriv,657755393fc57cab7974ec7a,65eb22e81f55edd3d7eb4543,65eb1de69438b51c1c55a653,Rebosen causes Agoriv.,17864,Agoriv is associated with Rebosen.,second,observation,0
1778,I am surprised that you think Ceflar should be removed from the samples.,second,32,Ceflar causes Rebosen.,Rebosen causes Ceflar.,Ceflar,,Graduated College,79338,1709908820283,1709908740945,female,English,Rebosen,Ceflar,6146eadbe88132805e5e3139,65eb22fa6a03f0b177f831b7,65eb1de69438b51c1c55a653,Ceflar causes Rebosen.,34563,Rebosen is associated with Ceflar.,first,avoidance,0
1767,I am surprised that you think Rebosen should be removed from the samples.,second,24,Rebosen causes Flembers.,Flembers causes Rebosen.,Rebosen,,Did not graduate High-school,52556,1709908714250,1709908661694,male,English ,Flembers,Rebosen,5ee93e0226f9f0167b877dbe,65eb22af12c9f9ac9f164acf,65eb1de69438b51c1c55a653,Rebosen causes Flembers.,33514,Rebosen is associated with Flembers.,second,avoidance,0
1780,I was surprised to see Ceflar in yesterday's sample.,second,65,Flembers causes Ceflar.,Ceflar causes Flembers.,Flembers,,Graduated High-school,109837,1709908833609,1709908723772,female,English,Flembers,Ceflar,6078af12106ee122215504da,65eb22e9d7f2e3c9aa7d69ca,65eb1de69438b51c1c55a653,Ceflar causes Flembers.,75028,Ceflar is associated with Flembers.,second,observation,0
1781,I am surprised that you think Denoden should be removed from the samples.,first,65,Denoden causes Flembers.,Flembers causes Denoden.,Denoden,,Higher degree,39636,1709908844768,1709908805132,female,English ,Denoden,Flembers,5c6548840d80fd0001425567,65eb233aa7ccec4364ab64d8,65eb1de69438b51c1c55a653,Denoden causes Flembers.,22363,Flembers is associated with Denoden.,second,avoidance,0
1775,I am surprised that you think Ceflar should be removed from the samples.,second,30,Ceflar causes Themaglin.,Themaglin causes Ceflar.,Ceflar,,Graduated College,42672,1709908810122,1709908767450,female,English,Themaglin,Ceflar,5c64981ca98f0700010f8c81,65eb2319f22437f84ecd8685,65eb1de69438b51c1c55a653,Ceflar causes Themaglin.,27935,Themaglin is associated with Ceflar.,first,avoidance,0
1776,I am surprised that you think Rebosen should be removed from the samples.,second,69,Ceflar causes Rebosen.,Rebosen causes Ceflar.,Ceflar,,Higher degree,100953,1709908816686,1709908715733,female,English ,Ceflar,Rebosen,63bec89e4ab1098cfe7106f5,65eb22dffd5bb7a935f32b2d,65eb1de69438b51c1c55a653,Ceflar causes Rebosen.,55672,Ceflar is associated with Rebosen.,first,avoidance,0
1785,I am surprised that you think Flembers should be removed from the samples.,second,39,Themaglin causes Flembers.,Flembers causes Themaglin.,Themaglin,,Higher degree,41568,1709908888993,1709908847425,female,English,Themaglin,Flembers,5d555d997c447d001df372b1,65eb236885bb2717d03b6ea4,65eb1de69438b51c1c55a653,Flembers causes Themaglin.,24057,Flembers is associated with Themaglin.,second,avoidance,0
1787,I am surprised that you think Agoriv should be removed from the samples.,first,20,Agoriv causes Rebosen.,Rebosen causes Agoriv.,Agoriv,,Graduated High-school,51145,1709908895668,1709908844523,male,English,Agoriv,Rebosen,5d277538379e51000149184d,65eb2365699631acfceb455d,65eb1de69438b51c1c55a653,Rebosen causes Agoriv.,27564,Agoriv is associated with Rebosen.,first,avoidance,0
1801,I am surprised that you think Themaglin should be removed from the samples.,first,49,Denoden causes Themaglin.,Themaglin causes Denoden.,Denoden,,Graduated High-school,35901,1709908981066,1709908945166,female,English,Themaglin,Denoden,5ffdd6ac44be033c5ca23956,65eb23cd11a25e4a979510fa,65eb1de69438b51c1c55a653,Themaglin causes Denoden.,21152,Denoden is associated with Themaglin.,second,avoidance,0
1777,I am surprised that you think Flembers should be removed from the samples.,first,75,Ceflar causes Flembers.,Flembers causes Ceflar.,Ceflar,,Graduated High-school,56164,1709908819276,1709908763112,female,English,Flembers,Ceflar,563f8474cbd4c6000fdc928b,65eb231255264c2c144a0ff1,65eb1de69438b51c1c55a653,Flembers causes Ceflar.,32119,Flembers is associated with Ceflar.,first,avoidance,0
1779,I was surprised to see Rebosen in yesterday's sample.,second,24,Rebosen causes Denoden.,Denoden causes Rebosen.,Rebosen,,Higher degree,30777,1709908831790,1709908801013,female,,Denoden,Rebosen,5beb23c7524a340001927005,65eb231a1f55edd3d7eb455f,65eb1de69438b51c1c55a653,Denoden causes Rebosen.,16123,Denoden is associated with Rebosen.,first,observation,0
1786,I am surprised that you think Rebosen should be removed from the samples.,second,65,Rebosen causes Flembers.,Flembers causes Rebosen.,Rebosen,This was a difficult question to answer. ,Graduated High-school,118198,1709908891465,1709908773267,female,english,Flembers,Rebosen,629075a83e17794e104bb46b,65eb231eb11dbc2195ba26b8,65eb1de69438b51c1c55a653,Flembers causes Rebosen.,66930,Rebosen is associated with Flembers.,second,avoidance,0
1782,I was surprised to see Themaglin in yesterday's sample.,second,32,Ceflar causes Themaglin.,Themaglin causes Ceflar.,Ceflar,Chocolate chips ,Graduated High-school,42103,1709908850554,1709908808451,male,English ,Ceflar,Themaglin,62e2def3b257d431d67fabcb,65eb234027f782646fc946b0,65eb1de69438b51c1c55a653,Ceflar causes Themaglin.,21305,Ceflar is associated with Themaglin.,first,observation,0
1789,I am surprised that you think Denoden should be removed from the samples.,second,44,Denoden causes Flembers.,Flembers causes Denoden.,Denoden,,Graduated High-school,124312,1709908899502,1709908775190,male,English,Flembers,Denoden,60e45f7e2581a9d2811431c0,65eb231fe7c944fc8c16a606,65eb1de69438b51c1c55a653,Flembers causes Denoden.,97103,Flembers is associated with Denoden.,first,avoidance,0
1810,I was surprised to see Themaglin in yesterday's sample.,second,26,Denoden causes Themaglin.,Themaglin causes Denoden.,Denoden,,Graduated High-school,69872,1709909019084,1709908949212,male,English ,Denoden,Themaglin,5b5f7b7869565a0001293821,65eb23cef557996ec09f2f70,65eb1de69438b51c1c55a653,Denoden causes Themaglin.,22743,Themaglin is associated with Denoden.,second,observation,0
1814,I was surprised to see Agoriv in yesterday's sample.,first,35,Agoriv causes Themaglin.,Themaglin causes Agoriv.,Agoriv,,Graduated High-school,91354,1709909065225,1709908973871,male,British-English,Agoriv,Themaglin,5615f3a47ffc8a000f812714,65eb23ec7132c44e17689bda,65eb1de69438b51c1c55a653,Agoriv causes Themaglin.,64063,Themaglin is associated with Agoriv.,second,observation,0
1783,I am surprised that you think Ceflar should be removed from the samples.,first,33,Themaglin causes Ceflar.,Ceflar causes Themaglin.,Themaglin,,Higher degree,34309,1709908851957,1709908817648,female,english,Ceflar,Themaglin,5f2a993589aa602d40352125,65eb234be89908f27d3d0064,65eb1de69438b51c1c55a653,Ceflar causes Themaglin.,18338,Ceflar is associated with Themaglin.,first,avoidance,0
1784,I am surprised that you think Rebosen should be removed from the samples.,second,62,Rebosen causes Agoriv.,Agoriv causes Rebosen.,Rebosen,,Graduated College,148750,1709908871100,1709908722350,female,English,Agoriv,Rebosen,5ee121f66cb68d11452219dc,65eb22e74e91e8adcf0ca67a,65eb1de69438b51c1c55a653,Rebosen causes Agoriv.,39564,Rebosen is associated with Agoriv.,second,avoidance,0
2107,I was surprised to see Denoden in yesterday's sample.,first,52,Denoden causes Rebosen.,Rebosen causes Denoden.,Denoden,,Higher degree,74808,1709909988871,1709909914063,female,,Denoden,Rebosen,596c8dce12209100018745de,65eb278aa21d0d581ffe1002,65eb1de69438b51c1c55a653,Denoden causes Rebosen.,49664,Denoden is associated with Rebosen.,first,observation,0
1788,I am surprised that you think Agoriv should be removed from the samples.,second,29,Themaglin causes Agoriv.,Agoriv causes Themaglin.,Themaglin,,Higher degree,322086,1709908898224,1709908576138,female,"english, punjabi and hindi",Themaglin,Agoriv,61324016329f5378ddc7b55a,65eb2250dc1d8746c585e553,65eb1de69438b51c1c55a653,Agoriv causes Themaglin.,232473,Agoriv is associated with Themaglin.,second,avoidance,0
1800,I was surprised to see Rebosen in yesterday's sample.,first,31,Rebosen causes Denoden.,Denoden causes Rebosen.,Rebosen,,Graduated High-school,64772,1709908975933,1709908911161,male,English,Rebosen,Denoden,63d3cf033d5ebd35bffe8515,65eb23a4a398e76ffe7f5bb7,65eb1de69438b51c1c55a653,Denoden causes Rebosen.,38942,Rebosen is associated with Denoden.,first,observation,0
1790,I am surprised that you think Denoden should be removed from the samples.,first,37,Agoriv causes Denoden.,Denoden causes Agoriv.,Agoriv,,Higher degree,84575,1709908919146,1709908834571,female,english,Denoden,Agoriv,60f2001aca3716810f4f4415,65eb2331454c42b2005a10b3,65eb1de69438b51c1c55a653,Agoriv causes Denoden.,58075,Agoriv is associated with Denoden.,second,avoidance,0
1793,I am surprised that you think Themaglin should be removed from the samples.,first,28,Themaglin causes Denoden.,Denoden causes Themaglin.,Themaglin,,Higher degree,51893,1709908945068,1709908893175,male,English,Themaglin,Denoden,62a1ef4b118ae7c6c666e130,65eb239517694b4fcc2965a7,65eb1de69438b51c1c55a653,Denoden causes Themaglin.,36239,Themaglin is associated with Denoden.,first,avoidance,0
1799,I am surprised that you think Flembers should be removed from the samples.,first,24,Denoden causes Flembers.,Flembers causes Denoden.,Denoden,,Graduated College,71235,1709908968890,1709908897655,male,,Flembers,Denoden,5f19a735255c76000b023d92,65eb238e9a2b3ae0a65db4a2,65eb1de69438b51c1c55a653,Denoden causes Flembers.,44413,Flembers is associated with Denoden.,first,avoidance,0
1808,I was surprised to see Themaglin in yesterday's sample.,first,34,Denoden causes Themaglin.,Themaglin causes Denoden.,Denoden,,Graduated College,68508,1709909000992,1709908932484,female,English,Themaglin,Denoden,5a6d92b8e70ca900017adced,65eb23be26c10df9e0cb2fc5,65eb1de69438b51c1c55a653,Themaglin causes Denoden.,38393,Denoden is associated with Themaglin.,second,observation,0
1809,I am surprised that you think Themaglin should be removed from the samples.,first,69,Rebosen causes Themaglin.,Themaglin causes Rebosen.,Rebosen,was fine,Graduated College,58196,1709909013425,1709908955229,male,English,Themaglin,Rebosen,5c7ed92f9c3fc00016f4e7dd,65eb23d4e4d48488bc2d0b13,65eb1de69438b51c1c55a653,Themaglin causes Rebosen.,27960,Rebosen is associated with Themaglin.,second,avoidance,0
1815,I was surprised to see Themaglin in yesterday's sample.,second,32,Ceflar causes Themaglin.,Themaglin causes Ceflar.,Ceflar,,Graduated High-school,63087,1709909067754,1709909004667,male,english,Ceflar,Themaglin,63d79bf2271aa409e093e403,65eb2409343a624ae4637dd2,65eb1de69438b51c1c55a653,Themaglin causes Ceflar.,46979,Ceflar is associated with Themaglin.,first,observation,0
1794,I was surprised to see Themaglin in yesterday's sample.,second,42,Themaglin causes Denoden.,Denoden causes Themaglin.,Themaglin,,Higher degree,143988,1709908946724,1709908802736,male,English ,Denoden,Themaglin,63d79ffc558f5cabde41b40f,65eb23324e769e89462d0b02,65eb1de69438b51c1c55a653,Denoden causes Themaglin.,120317,Denoden is associated with Themaglin.,first,observation,0
1795,I am surprised that you think Denoden should be removed from the samples.,second,38,Flembers causes Denoden.,Denoden causes Flembers.,Flembers,,Higher degree,38105,1709908955166,1709908917061,male,English,Flembers,Denoden,5d822f75d09b690017857bd4,65eb23af7b102edfe495acbd,65eb1de69438b51c1c55a653,Denoden causes Flembers.,17516,Denoden is associated with Flembers.,second,avoidance,0
1796,I am surprised that you think Rebosen should be removed from the samples.,second,70,Rebosen causes Flembers.,Flembers causes Rebosen.,Rebosen,,Graduated College,61922,1709908959586,1709908897664,female,English,Flembers,Rebosen,5c61288cd697e7000107b9b4,65eb2397f557996ec09f2f61,65eb1de69438b51c1c55a653,Rebosen causes Flembers.,29555,Flembers is associated with Rebosen.,first,avoidance,0
1797,I am surprised that you think Agoriv should be removed from the samples.,first,27,Denoden causes Agoriv.,Agoriv causes Denoden.,Denoden,,Higher degree,38452,1709908979419,1709908940967,male,English,Agoriv,Denoden,60990670eadeb64a27a55f2e,65eb23aeb36a62c8683d006f,65eb1de69438b51c1c55a653,Agoriv causes Denoden.,19436,Denoden is associated with Agoriv.,second,avoidance,0
1803,I am surprised that you think Rebosen should be removed from the samples.,first,39,Rebosen causes Agoriv.,Agoriv causes Rebosen.,Rebosen,,Graduated High-school,94777,1709908984935,1709908890158,female,English ,Rebosen,Agoriv,653555db179dc4e859ef43fb,65eb2381ef6874dcb088c5fc,65eb1de69438b51c1c55a653,Rebosen causes Agoriv.,66981,Agoriv is associated with Rebosen.,second,avoidance,0
1811,I was surprised to see Denoden in yesterday's sample.,second,39,Denoden causes Ceflar.,Ceflar causes Denoden.,Denoden,,Graduated College,40375,1709909072351,1709909031976,female,English,Ceflar,Denoden,5e94721dcf3467000af77d5d,65eb23ff93bf0f0f1f278e17,65eb1de69438b51c1c55a653,Ceflar causes Denoden.,22871,Denoden is associated with Ceflar.,second,observation,0
1829,I was surprised to see Themaglin in yesterday's sample.,second,34,Ceflar causes Themaglin.,Themaglin causes Ceflar.,Ceflar,,Higher degree,37601,1709909171473,1709909133872,male,english,Ceflar,Themaglin,607eba3149bb09e39019b9ae,65eb2489813edb2b01fe0f0f,65eb1de69438b51c1c55a653,Ceflar causes Themaglin.,21379,Themaglin is associated with Ceflar.,second,observation,0
1845,I was surprised to see Agoriv in yesterday's sample.,first,40,Agoriv causes Ceflar.,Ceflar causes Agoriv.,Agoriv,,Graduated High-school,61213,1709909237870,1709909176657,female,english,Agoriv,Ceflar,63e84abe5ebed76bc45a9dab,65eb24b12880512814653158,65eb1de69438b51c1c55a653,Agoriv causes Ceflar.,40427,Ceflar is associated with Agoriv.,second,observation,0
1802,I was surprised to see Themaglin in yesterday's sample.,second,67,Themaglin causes Ceflar.,Ceflar causes Themaglin.,Themaglin,,Graduated High-school,159795,1709908983507,1709908823712,male,,Ceflar,Themaglin,6557215c15014042f990a7bb,65eb23506ab7cab31b9f2f2e,65eb1de69438b51c1c55a653,Ceflar causes Themaglin.,113580,Themaglin is associated with Ceflar.,second,observation,0
1812,I am surprised that you think Flembers should be removed from the samples.,second,36,Agoriv causes Flembers.,Flembers causes Agoriv.,Agoriv,,Graduated College,123276,1709909037720,1709908914444,female,English,Agoriv,Flembers,5d53d2a6c6740300017ce7b6,65eb23a671dabeb0c788c60d,65eb1de69438b51c1c55a653,Flembers causes Agoriv.,24680,Agoriv is associated with Flembers.,first,avoidance,0
1805,I am surprised that you think Rebosen should be removed from the samples.,first,41,Ceflar causes Rebosen.,Rebosen causes Ceflar.,Ceflar,,Graduated High-school,164296,1709908992165,1709908827869,male,English,Rebosen,Ceflar,5a9dd20b4eecca0001dd9f1d,65eb235869d580d8564c9ee2,65eb1de69438b51c1c55a653,Rebosen causes Ceflar.,127363,Ceflar is associated with Rebosen.,second,avoidance,0
1820,I am surprised that you think Denoden should be removed from the samples.,second,47,Denoden causes Themaglin.,Themaglin causes Denoden.,Denoden,,Graduated College,41712,1709909121658,1709909079946,female,,Themaglin,Denoden,5ce94777de266200151ea319,65eb244f2101655db282a4d1,65eb1de69438b51c1c55a653,Denoden causes Themaglin.,24999,Denoden is associated with Themaglin.,second,avoidance,0
1824,I was surprised to see Ceflar in yesterday's sample.,second,41,Flembers causes Ceflar.,Ceflar causes Flembers.,Flembers,,Graduated High-school,151740,1709909130979,1709908979239,female,English,Flembers,Ceflar,5f7bfb7947a8901eadd910df,65eb23ea4e91e8adcf0ca6bd,65eb1de69438b51c1c55a653,Ceflar causes Flembers.,132932,Flembers is associated with Ceflar.,first,observation,0
1832,I am surprised that you think Flembers should be removed from the samples.,first,35,Themaglin causes Flembers.,Flembers causes Themaglin.,Themaglin,,Higher degree,81924,1709909190918,1709909108994,male,,Flembers,Themaglin,60cb76347e4c493351b9e2f7,65eb246c8b67c53d44d12077,65eb1de69438b51c1c55a653,Themaglin causes Flembers.,60214,Themaglin is associated with Flembers.,second,avoidance,0
1838,I was surprised to see Agoriv in yesterday's sample.,first,27,Agoriv causes Ceflar.,Ceflar causes Agoriv.,Agoriv,,Graduated College,32493,1709909213398,1709909180905,male,English,Agoriv,Ceflar,63d13b740d6c5fa4a1128aed,65eb24b76cd67578d24a1077,65eb1de69438b51c1c55a653,Ceflar causes Agoriv.,16695,Agoriv is associated with Ceflar.,first,observation,0
1813,I was surprised to see Rebosen in yesterday's sample.,first,39,Rebosen causes Agoriv.,Agoriv causes Rebosen.,Rebosen,,Graduated High-school,53060,1709909054273,1709909001213,female,English,Rebosen,Agoriv,5e1f1ec9debba10112ac5733,65eb2400005427a3d986e9f0,65eb1de69438b51c1c55a653,Agoriv causes Rebosen.,30558,Rebosen is associated with Agoriv.,first,observation,0
1822,I am surprised that you think Denoden should be removed from the samples.,first,50,Denoden causes Agoriv.,Agoriv causes Denoden.,Denoden,,Graduated College,70786,1709909127626,1709909056840,female,english,Denoden,Agoriv,6151e0ef0e9ddaac501531bc,65eb243aae5c91a2656de2a8,65eb1de69438b51c1c55a653,Denoden causes Agoriv.,49893,Agoriv is associated with Denoden.,second,avoidance,0
1848,I was surprised to see Denoden in yesterday's sample.,first,45,Denoden causes Flembers.,Flembers causes Denoden.,Denoden,,Graduated College,35334,1709909252405,1709909217071,female,English,Denoden,Flembers,59dcaf7124d7bf00012f09c4,65eb24dad7f2e3c9aa7d6a4f,65eb1de69438b51c1c55a653,Flembers causes Denoden.,18051,Flembers is associated with Denoden.,second,observation,0
1849,I am surprised that you think Flembers should be removed from the samples.,second,28,Flembers causes Rebosen.,Rebosen causes Flembers.,Flembers,,Graduated College,41163,1709909252959,1709909211796,male,English,Rebosen,Flembers,62d65f0da51d995e67b0a92e,65eb24d245f27ff2527fa748,65eb1de69438b51c1c55a653,Rebosen causes Flembers.,20981,Flembers is associated with Rebosen.,second,avoidance,0
1857,I am surprised that you think Rebosen should be removed from the samples.,first,69,Ceflar causes Rebosen.,Rebosen causes Ceflar.,Ceflar,,Higher degree,126945,1709909296263,1709909169318,female,English,Rebosen,Ceflar,62ac48f8586465c87a4f17c2,65eb24a9d601bbd3d2f8325c,65eb1de69438b51c1c55a653,Rebosen causes Ceflar.,92595,Rebosen is associated with Ceflar.,first,avoidance,0
1862,I was surprised to see Rebosen in yesterday's sample.,first,64,Rebosen causes Denoden.,Denoden causes Rebosen.,Rebosen,,Graduated High-school,110552,1709909304018,1709909193466,female,English,Rebosen,Denoden,5fed9b2291948ab1c1fb2351,65eb24c5f22437f84ecd8700,65eb1de69438b51c1c55a653,Denoden causes Rebosen.,41209,Denoden is associated with Rebosen.,second,observation,0
1866,I am surprised that you think Ceflar should be removed from the samples.,first,42,Ceflar causes Themaglin.,Themaglin causes Ceflar.,Ceflar,,Higher degree,43621,1709909318312,1709909274691,female,English,Ceflar,Themaglin,56be3b8b202307000ccbb10c,65eb25158391c6763f1506db,65eb1de69438b51c1c55a653,Themaglin causes Ceflar.,25241,Ceflar is associated with Themaglin.,first,avoidance,0
1817,I was surprised to see Ceflar in yesterday's sample.,first,26,Themaglin causes Ceflar.,Ceflar causes Themaglin.,Themaglin,,Graduated High-school,34162,1709909091673,1709909057511,female,english,Ceflar,Themaglin,5a1ddd16728b1b0001adb0f8,65eb243a6bc57316021fa212,65eb1de69438b51c1c55a653,Themaglin causes Ceflar.,16870,Ceflar is associated with Themaglin.,first,observation,0
1821,I am surprised that you think Flembers should be removed from the samples.,second,68,Ceflar causes Flembers.,Flembers causes Ceflar.,Ceflar,,Graduated High-school,76877,1709909119586,1709909042709,female,english,Ceflar,Flembers,5c57476e59095a0001bad911,65eb242dc67d1dae4f5e085e,65eb1de69438b51c1c55a653,Flembers causes Ceflar.,44952,Ceflar is associated with Flembers.,first,avoidance,0
1835,I was surprised to see Themaglin in yesterday's sample.,second,60,Denoden causes Themaglin.,Themaglin causes Denoden.,Denoden,,Graduated High-school,60507,1709909197148,1709909136641,male,English ,Denoden,Themaglin,5c6983cd187d9c00018d0cde,65eb248886187bd19631a3f8,65eb1de69438b51c1c55a653,Themaglin causes Denoden.,32080,Themaglin is associated with Denoden.,second,observation,0
1841,I was surprised to see Rebosen in yesterday's sample.,first,33,Rebosen causes Flembers.,Flembers causes Rebosen.,Rebosen,,Graduated College,77327,1709909229844,1709909152517,female,,Rebosen,Flembers,5fceb997bc11f516590460ee,65eb24975cc8b96eaa8ffb08,65eb1de69438b51c1c55a653,Rebosen causes Flembers.,57712,Flembers is associated with Rebosen.,second,observation,0
1842,I am surprised that you think Denoden should be removed from the samples.,first,35,Denoden causes Ceflar.,Ceflar causes Denoden.,Denoden,,Higher degree,39149,1709909234464,1709909195315,male,English,Denoden,Ceflar,5d3a0bd20ebaf3001961ef18,65eb24c29215855d621fd499,65eb1de69438b51c1c55a653,Denoden causes Ceflar.,22341,Ceflar is associated with Denoden.,second,avoidance,0
1818,I was surprised to see Flembers in yesterday's sample.,second,58,Agoriv causes Flembers.,Flembers causes Agoriv.,Agoriv,,Did not graduate High-school,83767,1709909114702,1709909030935,female,English,Agoriv,Flembers,5c28f32031d4ec0001e5083c,65eb241ba49cf4ebb0d6479f,65eb1de69438b51c1c55a653,Flembers causes Agoriv.,41197,Agoriv is associated with Flembers.,first,observation,0
1819,I was surprised to see Denoden in yesterday's sample.,second,43,Denoden causes Agoriv.,Agoriv causes Denoden.,Denoden,,Graduated College,71559,1709909114700,1709909043141,female,English,Agoriv,Denoden,5eaf0acf4413665f37de789b,65eb2429ac3068c6b495112c,65eb1de69438b51c1c55a653,Agoriv causes Denoden.,35774,Agoriv is associated with Denoden.,first,observation,0
1827,I am surprised that you think Rebosen should be removed from the samples.,first,34,Rebosen causes Denoden.,Denoden causes Rebosen.,Rebosen,Nil ,Higher degree,61277,1709909155476,1709909094199,male,English,Rebosen,Denoden,62b629edb7c97d5de8516ad0,65eb2459ef6874dcb088c64c,65eb1de69438b51c1c55a653,Rebosen causes Denoden.,22852,Denoden is associated with Rebosen.,second,avoidance,0
1834,I was surprised to see Denoden in yesterday's sample.,first,29,Denoden causes Rebosen.,Rebosen causes Denoden.,Denoden,,Higher degree,59865,1709909194015,1709909134150,female,English,Denoden,Rebosen,5ab94e8cf69e940001d8fd25,65eb248a59debe6d7306e4d8,65eb1de69438b51c1c55a653,Denoden causes Rebosen.,48277,Rebosen is associated with Denoden.,second,observation,0
1837,I am surprised that you think Flembers should be removed from the samples.,second,34,Flembers causes Themaglin.,Themaglin causes Flembers.,Flembers,,Graduated College,33108,1709909205679,1709909172571,male,English,Themaglin,Flembers,64138df5c0704ce6ca56e237,65eb24ae93bf0f0f1f278e30,65eb1de69438b51c1c55a653,Flembers causes Themaglin.,15498,Themaglin is associated with Flembers.,first,avoidance,0
1823,I was surprised to see Ceflar in yesterday's sample.,first,31,Ceflar causes Denoden.,Denoden causes Ceflar.,Ceflar,Thank you ,Graduated High-school,44814,1709909125890,1709909081076,female,English ,Ceflar,Denoden,5f3adfbf2e598b7a0b73c45e,65eb24527132c44e17689c10,65eb1de69438b51c1c55a653,Denoden causes Ceflar.,21504,Ceflar is associated with Denoden.,first,observation,0
1830,I was surprised to see Rebosen in yesterday's sample.,second,48,Flembers causes Rebosen.,Rebosen causes Flembers.,Flembers,,Higher degree,56966,1709909184289,1709909127323,female,English,Flembers,Rebosen,62a133f31c71d01e25386981,65eb2467d11b2ac54bfdefc2,65eb1de69438b51c1c55a653,Flembers causes Rebosen.,30977,Rebosen is associated with Flembers.,second,observation,0
1840,I am surprised that you think Themaglin should be removed from the samples.,second,65,Denoden causes Themaglin.,Themaglin causes Denoden.,Denoden,,Higher degree,44374,1709909217398,1709909173024,female,English,Denoden,Themaglin,5b79b92355860100014774f0,65eb24af1e6ce68ecc07d357,65eb1de69438b51c1c55a653,Themaglin causes Denoden.,21927,Themaglin is associated with Denoden.,second,avoidance,0
1867,I am surprised that you think Agoriv should be removed from the samples.,first,34,Agoriv causes Flembers.,Flembers causes Agoriv.,Agoriv,,Graduated College,73205,1709909324286,1709909251081,female,English,Agoriv,Flembers,63d7a046e7d314f31f410d29,65eb24fde8ec484ddc55b4bd,65eb1de69438b51c1c55a653,Agoriv causes Flembers.,48982,Agoriv is associated with Flembers.,first,avoidance,0
1871,I am surprised that you think Ceflar should be removed from the samples.,first,42,Rebosen causes Ceflar.,Ceflar causes Rebosen.,Rebosen,,Higher degree,36499,1709909329846,1709909293347,female,English,Ceflar,Rebosen,5ad23186d9f7470001db1a6f,65eb252426c10df9e0cb3017,65eb1de69438b51c1c55a653,Rebosen causes Ceflar.,18261,Ceflar is associated with Rebosen.,first,avoidance,0
1828,I was surprised to see Rebosen in yesterday's sample.,second,54,Rebosen causes Ceflar.,Ceflar causes Rebosen.,Rebosen,,Graduated High-school,114615,1709909161154,1709909046539,male,English,Ceflar,Rebosen,6096ecc582b972e5305fbb85,65eb242d32c887872a07d37b,65eb1de69438b51c1c55a653,Rebosen causes Ceflar.,84398,Ceflar is associated with Rebosen.,first,observation,0
1839,I am surprised that you think Agoriv should be removed from the samples.,first,29,Agoriv causes Rebosen.,Rebosen causes Agoriv.,Agoriv,,Higher degree,69346,1709909216306,1709909146960,female,English,Agoriv,Rebosen,5f2ea9c0a638c92312e4ae5c,65eb2494ac3068c6b4951148,65eb1de69438b51c1c55a653,Agoriv causes Rebosen.,28416,Agoriv is associated with Rebosen.,first,avoidance,0
1831,I am surprised that you think Flembers should be removed from the samples.,second,47,Agoriv causes Flembers.,Flembers causes Agoriv.,Agoriv,,Graduated College,77786,1709909184970,1709909107184,female,English,Agoriv,Flembers,6131057db82458b8609961c1,65eb246b05812e2727637db1,65eb1de69438b51c1c55a653,Flembers causes Agoriv.,50567,Agoriv is associated with Flembers.,first,avoidance,0
1847,I am surprised that you think Denoden should be removed from the samples.,second,52,Denoden causes Rebosen.,Rebosen causes Denoden.,Denoden,,Graduated College,92230,1709909243436,1709909151206,female,English,Rebosen,Denoden,63761d26aceed18c21423b5f,65eb2493584b048be44c9eed,65eb1de69438b51c1c55a653,Denoden causes Rebosen.,52335,Denoden is associated with Rebosen.,second,avoidance,0
1854,I am surprised that you think Ceflar should be removed from the samples.,second,40,Flembers causes Ceflar.,Ceflar causes Flembers.,Flembers,,Higher degree,68417,1709909290801,1709909222384,female,English,Flembers,Ceflar,5e64f37b765e8a25f310a048,65eb24dde889466648fd7df0,65eb1de69438b51c1c55a653,Flembers causes Ceflar.,47297,Ceflar is associated with Flembers.,second,avoidance,0
1855,I was surprised to see Agoriv in yesterday's sample.,second,62,Agoriv causes Denoden.,Denoden causes Agoriv.,Agoriv,,Higher degree,63707,1709909296183,1709909232476,female,English,Denoden,Agoriv,5f60fad1438cb2026e428741,65eb24dbf5329f4151617963,65eb1de69438b51c1c55a653,Denoden causes Agoriv.,33176,Agoriv is associated with Denoden.,second,observation,0
1833,I was surprised to see Denoden in yesterday's sample.,second,34,Denoden causes Ceflar.,Ceflar causes Denoden.,Denoden,,Graduated College,91989,1709909193067,1709909101078,female,English ,Ceflar,Denoden,5da44d8faebbe900153d9d3a,65eb2462584b048be44c9ee5,65eb1de69438b51c1c55a653,Ceflar causes Denoden.,57963,Ceflar is associated with Denoden.,first,observation,0
1851,I am surprised that you think Themaglin should be removed from the samples.,second,49,Themaglin causes Flembers.,Flembers causes Themaglin.,Themaglin,,Graduated College,56785,1709909271712,1709909214927,female,English,Flembers,Themaglin,5c3512d27ab36100015bd89a,65eb24d5a0c7c796458e9905,65eb1de69438b51c1c55a653,Themaglin causes Flembers.,31816,Flembers is associated with Themaglin.,first,avoidance,0
1868,I was surprised to see Themaglin in yesterday's sample.,first,34,Rebosen causes Themaglin.,Themaglin causes Rebosen.,Rebosen,,Graduated College,120836,1709909373227,1709909252391,male,English,Themaglin,Rebosen,5f7d89e68e20522626a6e862,65eb24cd75cd1ae288c97b08,65eb1de69438b51c1c55a653,Rebosen causes Themaglin.,7277,Themaglin is associated with Rebosen.,first,observation,0
1872,I was surprised to see Ceflar in yesterday's sample.,second,28,Ceflar causes Agoriv.,Agoriv causes Ceflar.,Ceflar,,,25202,1709909341354,1709909316152,female,English,Agoriv,Ceflar,608de796e01aab901bea05d1,65eb253cd7f2e3c9aa7d6a87,65eb1de69438b51c1c55a653,Agoriv causes Ceflar.,13001,Agoriv is associated with Ceflar.,first,observation,0
1873,I am surprised that you think Flembers should be removed from the samples.,second,69,Themaglin causes Flembers.,Flembers causes Themaglin.,Themaglin,,Graduated High-school,169598,1709909342548,1709909172950,female,English,Themaglin,Flembers,61017977184be1b1d2a89218,65eb24a8f8dc0a5856fd7da7,65eb1de69438b51c1c55a653,Flembers causes Themaglin.,133454,Flembers is associated with Themaglin.,second,avoidance,0
1874,I was surprised to see Themaglin in yesterday's sample.,second,53,Denoden causes Themaglin.,Themaglin causes Denoden.,Denoden,,Graduated College,60112,1709909349138,1709909289026,female,English,Denoden,Themaglin,5828a6738dd4690001256b33,65eb251e8391c6763f1506de,65eb1de69438b51c1c55a653,Denoden causes Themaglin.,28753,Denoden is associated with Themaglin.,first,observation,0
1875,I was surprised to see Rebosen in yesterday's sample.,first,43,Rebosen causes Themaglin.,Themaglin causes Rebosen.,Rebosen,,Graduated High-school,74471,1709909355409,1709909280938,male,English ,Rebosen,Themaglin,5de7fc0a75ce6e80152f80cf,65eb2519e1893c264829b372,65eb1de69438b51c1c55a653,Themaglin causes Rebosen.,43798,Rebosen is associated with Themaglin.,first,observation,0
1876,I was surprised to see Flembers in yesterday's sample.,second,64,Flembers causes Rebosen.,Rebosen causes Flembers.,Flembers,,Graduated College,48197,1709909355792,1709909307595,female,English,Rebosen,Flembers,5ea0613bef1e880130b36f45,65eb2537f557996ec09f2fdc,65eb1de69438b51c1c55a653,Flembers causes Rebosen.,19961,Flembers is associated with Rebosen.,second,observation,0
1877,I was surprised to see Rebosen in yesterday's sample.,second,26,Denoden causes Rebosen.,Rebosen causes Denoden.,Denoden,,Graduated College,36854,1709909357969,1709909321115,male,English,Denoden,Rebosen,5deb05909f631c23193bbffd,65eb254308c0828ed0b7db8a,65eb1de69438b51c1c55a653,Rebosen causes Denoden.,24672,Denoden is associated with Rebosen.,first,observation,0
1886,I was surprised to see Agoriv in yesterday's sample.,second,27,Agoriv causes Flembers.,Flembers causes Agoriv.,Agoriv,,Graduated College,41935,1709909373269,1709909331334,male,English ,Flembers,Agoriv,63f77f79278126e103659cf4,65eb254ff4962643ddb7db86,65eb1de69438b51c1c55a653,Flembers causes Agoriv.,23629,Agoriv is associated with Flembers.,second,observation,0
1893,I am surprised that you think Rebosen should be removed from the samples.,second,36,Agoriv causes Rebosen.,Rebosen causes Agoriv.,Agoriv,,Graduated High-school,34884,1709909419666,1709909384782,male,English,Agoriv,Rebosen,5bcb47c7c013ee0001037c02,65eb2581d03d5d3e2d06e57e,65eb1de69438b51c1c55a653,Agoriv causes Rebosen.,18419,Agoriv is associated with Rebosen.,first,avoidance,0
1903,I am surprised that you think Denoden should be removed from the samples.,first,47,Denoden causes Ceflar.,Ceflar causes Denoden.,Denoden,,Graduated High-school,103673,1709909458322,1709909354649,female,English ,Denoden,Ceflar,5a4bf76e53a4560001ba0f12,65eb254ad601bbd3d2f832a9,65eb1de69438b51c1c55a653,Ceflar causes Denoden.,61786,Denoden is associated with Ceflar.,first,avoidance,0
1906,I am surprised that you think Agoriv should be removed from the samples.,second,33,Agoriv causes Denoden.,Denoden causes Agoriv.,Agoriv,,Graduated College,42513,1709909468106,1709909425593,male,,Denoden,Agoriv,5af33dc65072c70001068a45,65eb25ab14a4b1409ac97b71,65eb1de69438b51c1c55a653,Agoriv causes Denoden.,24568,Agoriv is associated with Denoden.,second,avoidance,0
1915,I am surprised that you think Denoden should be removed from the samples.,first,61,Denoden causes Ceflar.,Ceflar causes Denoden.,Denoden,,Graduated High-school,64220,1709909508517,1709909444297,male,English,Denoden,Ceflar,5680452cc5767f00121cc81a,65eb25bbad8823bedeb037e1,65eb1de69438b51c1c55a653,Ceflar causes Denoden.,45495,Denoden is associated with Ceflar.,first,avoidance,0
1878,I was surprised to see Denoden in yesterday's sample.,second,35,Denoden causes Themaglin.,Themaglin causes Denoden.,Denoden,,Graduated College,28637,1709909360300,1709909331663,female,English,Themaglin,Denoden,6127c89a145f6be7b6527daa,65eb254f7c979c516995ad97,65eb1de69438b51c1c55a653,Themaglin causes Denoden.,15712,Themaglin is associated with Denoden.,first,observation,0
1879,I was surprised to see Agoriv in yesterday's sample.,second,22,Agoriv causes Denoden.,Denoden causes Agoriv.,Agoriv,,Graduated College,72448,1709909361484,1709909289036,female,english,Denoden,Agoriv,61087501fcd2e262d8a6621a,65eb25204df22a4f0831a3d5,65eb1de69438b51c1c55a653,Agoriv causes Denoden.,47587,Denoden is associated with Agoriv.,first,observation,0
1889,I am surprised that you think Agoriv should be removed from the samples.,first,31,Flembers causes Agoriv.,Agoriv causes Flembers.,Flembers,,Graduated High-school,40549,1709909389017,1709909348468,female,English ,Agoriv,Flembers,5724e865386f1b0013e9563a,65eb255fe8ec484ddc55b4e0,65eb1de69438b51c1c55a653,Agoriv causes Flembers.,19944,Agoriv is associated with Flembers.,first,avoidance,0
1896,I am surprised that you think Denoden should be removed from the samples.,second,71,Agoriv causes Denoden.,Denoden causes Agoriv.,Agoriv,all good,Graduated College,115191,1709909315618,1709909200427,female,English,Agoriv,Denoden,59eb2cc98c371000010bb196,65eb2539ede7bd4c6342bc99,65eb1de69438b51c1c55a653,Denoden causes Agoriv.,68721,Agoriv is associated with Denoden.,first,avoidance,0
1900,I was surprised to see Agoriv in yesterday's sample.,first,43,Agoriv causes Flembers.,Flembers causes Agoriv.,Agoriv,,Higher degree,72100,1709909449374,1709909377274,female,English ,Agoriv,Flembers,5cdc004ad6bdfa001aeb6129,65eb2578c4d54d368d2ec75d,65eb1de69438b51c1c55a653,Agoriv causes Flembers.,37301,Agoriv is associated with Flembers.,first,observation,0
1901,I was surprised to see Flembers in yesterday's sample.,second,26,Denoden causes Flembers.,Flembers causes Denoden.,Denoden,,Higher degree,93307,1709909453093,1709909359786,female,English,Denoden,Flembers,5acfdb527677430001c8f1e9,65eb256087df1a888c0b66c5,65eb1de69438b51c1c55a653,Flembers causes Denoden.,8596,Flembers is associated with Denoden.,second,observation,0
1905,I am surprised that you think Denoden should be removed from the samples.,second,54,Denoden causes Themaglin.,Themaglin causes Denoden.,Denoden,,Higher degree,58407,1709909467759,1709909409352,female,English,Themaglin,Denoden,5ed934c19e6b4a496cd6da06,65eb259afc33f84a4bda94ca,65eb1de69438b51c1c55a653,Denoden causes Themaglin.,33583,Denoden is associated with Themaglin.,second,avoidance,0
1913,I am surprised that you think Flembers should be removed from the samples.,second,36,Themaglin causes Flembers.,Flembers causes Themaglin.,Themaglin,,Higher degree,58315,1709909507891,1709909449576,female,English,Themaglin,Flembers,562435d4ed6e5a0011c812d0,65eb25c5b139d0170b6531c5,65eb1de69438b51c1c55a653,Flembers causes Themaglin.,40632,Flembers is associated with Themaglin.,second,avoidance,0
1880,I was surprised to see Themaglin in yesterday's sample.,second,23,Rebosen causes Themaglin.,Themaglin causes Rebosen.,Rebosen,,Graduated College,38637,1709909362242,1709909323605,female,English,Rebosen,Themaglin,60fd145751137d5f50130f0b,65eb25461fec2d02e641e2fa,65eb1de69438b51c1c55a653,Rebosen causes Themaglin.,25983,Rebosen is associated with Themaglin.,first,observation,0
1881,I am surprised that you think Denoden should be removed from the samples.,first,22,Rebosen causes Denoden.,Denoden causes Rebosen.,Rebosen,,,42553,1709909365892,1709909323339,male,,Denoden,Rebosen,5e833d4ab80abf02a1761589,65eb25477132c44e17689c75,65eb1de69438b51c1c55a653,Denoden causes Rebosen.,22684,Rebosen is associated with Denoden.,second,avoidance,0
1902,I was surprised to see Rebosen in yesterday's sample.,second,46,Rebosen causes Flembers.,Flembers causes Rebosen.,Rebosen,,Graduated College,66426,1709909457904,1709909391478,male,English ,Flembers,Rebosen,60000d7b438a351baee5eeba,65eb2587f4ca300b44278e82,65eb1de69438b51c1c55a653,Flembers causes Rebosen.,42549,Flembers is associated with Rebosen.,first,observation,0
1917,I was surprised to see Themaglin in yesterday's sample.,first,52,Themaglin causes Agoriv.,Agoriv causes Themaglin.,Themaglin,,Graduated College,35720,1709909510230,1709909474510,male,English,Themaglin,Agoriv,60feb2be3bb57f04327c03f4,65eb25dc2500543d5e7f5c95,65eb1de69438b51c1c55a653,Agoriv causes Themaglin.,21479,Agoriv is associated with Themaglin.,second,observation,0
1929,I am surprised that you think Denoden should be removed from the samples.,second,23,Agoriv causes Denoden.,Denoden causes Agoriv.,Agoriv,,Graduated College,31678,1709909536763,1709909505085,male,British,Agoriv,Denoden,62029c5cef1cb18a1337c9cc,65eb25faaea1a885e88c6718,65eb1de69438b51c1c55a653,Denoden causes Agoriv.,14386,Denoden is associated with Agoriv.,second,avoidance,0
1948,I am surprised that you think Agoriv should be removed from the samples.,second,34,Agoriv causes Denoden.,Denoden causes Agoriv.,Agoriv,,Higher degree,48473,1709909582453,1709909533980,male,English,Denoden,Agoriv,5b75532d2aef0d0001c22f5c,65eb261af9a537da84856881,65eb1de69438b51c1c55a653,Denoden causes Agoriv.,29031,Denoden is associated with Agoriv.,first,avoidance,0
2003,I am surprised that you think Ceflar should be removed from the samples.,first,,Ceflar causes Themaglin.,Themaglin causes Ceflar.,Ceflar,,,12630,1709909773452,1709909760822,,,Ceflar,Themaglin,597b50cb1fc28a0001917d9a,65eb26fbf4962643ddb7dbf3,65eb1de69438b51c1c55a653,Themaglin causes Ceflar.,8640,Ceflar is associated with Themaglin.,first,avoidance,0
2006,I am surprised that you think Rebosen should be removed from the samples.,second,23,Agoriv causes Rebosen.,Rebosen causes Agoriv.,Agoriv,,Higher degree,22545,1709909785123,1709909762578,male,english,Agoriv,Rebosen,5ede156177b7da029db38614,65eb26ff2c3ed516b12ec7ac,65eb1de69438b51c1c55a653,Rebosen causes Agoriv.,9658,Agoriv is associated with Rebosen.,first,avoidance,0
1882,I was surprised to see Denoden in yesterday's sample.,second,59,Ceflar causes Denoden.,Denoden causes Ceflar.,Ceflar,interesting,Higher degree,296942,1709909367442,1709909070500,female,english,Ceflar,Denoden,5ddadbe7b04389a3cd424a82,65eb243f9138e19a014cc955,65eb1de69438b51c1c55a653,Ceflar causes Denoden.,186266,Ceflar is associated with Denoden.,first,observation,0
1936,I was surprised to see Rebosen in yesterday's sample.,first,42,Themaglin causes Rebosen.,Rebosen causes Themaglin.,Themaglin,,Graduated College,56495,1709909556764,1709909500269,female,English,Rebosen,Themaglin,5a5f7480acc75b00017aab51,65eb25f6c4d54d368d2ec77d,65eb1de69438b51c1c55a653,Themaglin causes Rebosen.,33017,Themaglin is associated with Rebosen.,second,observation,0
1939,I was surprised to see Flembers in yesterday's sample.,first,24,Denoden causes Flembers.,Flembers causes Denoden.,Denoden,,Higher degree,40145,1709909565006,1709909524861,female,English,Flembers,Denoden,5e9ec8f7e16784000beea696,65eb260f813edb2b01fe0f94,65eb1de69438b51c1c55a653,Denoden causes Flembers.,20912,Flembers is associated with Denoden.,first,observation,0
1940,I am surprised that you think Ceflar should be removed from the samples.,first,56,Agoriv causes Ceflar.,Ceflar causes Agoriv.,Agoriv,,Graduated High-school,81815,1709909567932,1709909486117,female,English ,Ceflar,Agoriv,595e8f77710c1800018df9ec,65eb25e54df22a4f0831a407,65eb1de69438b51c1c55a653,Ceflar causes Agoriv.,47415,Ceflar is associated with Agoriv.,first,avoidance,0
1941,I am surprised that you think Denoden should be removed from the samples.,second,40,Denoden causes Ceflar.,Ceflar causes Denoden.,Denoden,,Higher degree,50130,1709909568085,1709909517955,female,english,Ceflar,Denoden,5999aedebbe8480001796677,65eb2605e89908f27d3d017c,65eb1de69438b51c1c55a653,Ceflar causes Denoden.,29248,Ceflar is associated with Denoden.,first,avoidance,0
1972,I was surprised to see Ceflar in yesterday's sample.,second,48,Ceflar causes Denoden.,Denoden causes Ceflar.,Ceflar,,Higher degree,133797,1709909669301,1709909535505,female,English ,Denoden,Ceflar,5d30cca374c5990019a9f634,65eb2614d03d5d3e2d06e5c0,65eb1de69438b51c1c55a653,Denoden causes Ceflar.,108365,Denoden is associated with Ceflar.,first,observation,0
1978,I was surprised to see Agoriv in yesterday's sample.,second,48,Rebosen causes Agoriv.,Agoriv causes Rebosen.,Rebosen,,Graduated College,66442,1709909691249,1709909624807,female,English,Rebosen,Agoriv,614ad1d11ebbb70be136b832,65eb2672b139d0170b65320b,65eb1de69438b51c1c55a653,Rebosen causes Agoriv.,39954,Agoriv is associated with Rebosen.,second,observation,0
1979,I was surprised to see Flembers in yesterday's sample.,first,32,Flembers causes Themaglin.,Themaglin causes Flembers.,Flembers,,Higher degree,39528,1709909691597,1709909652069,female,english,Flembers,Themaglin,5a4ce99f5f74170001e0ff1a,65eb268df22437f84ecd8781,65eb1de69438b51c1c55a653,Themaglin causes Flembers.,20128,Flembers is associated with Themaglin.,first,observation,0
1883,I was surprised to see Themaglin in yesterday's sample.,second,48,Themaglin causes Rebosen.,Rebosen causes Themaglin.,Themaglin,,Graduated High-school,49936,1709909370048,1709909320112,other,English,Rebosen,Themaglin,60fd54eeb92f1c8cdb0fc4bb,65eb2541288051281465318b,65eb1de69438b51c1c55a653,Rebosen causes Themaglin.,14039,Rebosen is associated with Themaglin.,first,observation,0
1885,I was surprised to see Rebosen in yesterday's sample.,first,58,Rebosen causes Denoden.,Denoden causes Rebosen.,Rebosen,,Higher degree,52040,1709909371504,1709909319464,male,English,Rebosen,Denoden,561b6038811d220005f31397,65eb253fbac072c0f61fa24b,65eb1de69438b51c1c55a653,Denoden causes Rebosen.,30064,Denoden is associated with Rebosen.,second,observation,0
1887,I was surprised to see Denoden in yesterday's sample.,first,31,Denoden causes Ceflar.,Ceflar causes Denoden.,Denoden,,Graduated High-school,56007,1709909375421,1709909319414,male,English,Denoden,Ceflar,60737b97d01c3800e734921d,65eb253e7132c44e17689c6f,65eb1de69438b51c1c55a653,Ceflar causes Denoden.,31132,Ceflar is associated with Denoden.,second,observation,0
1890,I am surprised that you think Agoriv should be removed from the samples.,second,21,Flembers causes Agoriv.,Agoriv causes Flembers.,Flembers,,Higher degree,50173,1709909403203,1709909353030,female,English,Flembers,Agoriv,606252b0ae85f1f0a3a531fb,65eb256184b186b8eb8ffafb,65eb1de69438b51c1c55a653,Agoriv causes Flembers.,27548,Flembers is associated with Agoriv.,first,avoidance,0
1894,I was surprised to see Flembers in yesterday's sample.,second,61,Agoriv causes Flembers.,Flembers causes Agoriv.,Agoriv,I could have justified reasons why either statement fitted either outcome,Graduated College,152798,1709909424199,1709909271401,female,English ,Agoriv,Flembers,5ed2c233dddac00c412585f6,65eb24dc1e65702e0bcd8721,65eb1de69438b51c1c55a653,Agoriv causes Flembers.,86232,Flembers is associated with Agoriv.,second,observation,0
1898,I was surprised to see Rebosen in yesterday's sample.,second,65,Ceflar causes Rebosen.,Rebosen causes Ceflar.,Ceflar,,Graduated College,55278,1709909448254,1709909392976,female,English ,Ceflar,Rebosen,5f0049efc573a300096568f7,65eb258f9215855d621fd4da,65eb1de69438b51c1c55a653,Ceflar causes Rebosen.,27832,Rebosen is associated with Ceflar.,second,observation,0
1904,I am surprised that you think Flembers should be removed from the samples.,second,32,Denoden causes Flembers.,Flembers causes Denoden.,Denoden,,Higher degree,58278,1709909463466,1709909405188,female,English ,Denoden,Flembers,657628c407014e4bc9fb9eeb,65eb255cd3f281d1eb16a6b3,65eb1de69438b51c1c55a653,Flembers causes Denoden.,33165,Flembers is associated with Denoden.,second,avoidance,0
1909,I am surprised that you think Rebosen should be removed from the samples.,first,52,Rebosen causes Flembers.,Flembers causes Rebosen.,Rebosen,,Graduated High-school,87365,1709909481856,1709909394491,female,English,Rebosen,Flembers,5fcc07625049472607490069,65eb255915777a67065e0883,65eb1de69438b51c1c55a653,Rebosen causes Flembers.,64535,Rebosen is associated with Flembers.,first,avoidance,0
1888,I am surprised that you think Themaglin should be removed from the samples.,first,32,Flembers causes Themaglin.,Themaglin causes Flembers.,Flembers,,Graduated High-school,85778,1709909376412,1709909290634,female,English ,Themaglin,Flembers,610dd94a08421c5a867e3c8e,65eb2521c67d1dae4f5e08bd,65eb1de69438b51c1c55a653,Flembers causes Themaglin.,45097,Flembers is associated with Themaglin.,second,avoidance,0
1891,I am surprised that you think Flembers should be removed from the samples.,second,53,Ceflar causes Flembers.,Flembers causes Ceflar.,Ceflar,Interesting ,,81148,1709909405874,1709909324726,male,English ,Ceflar,Flembers,5a3c0b842f91ec0001dc9bb4,65eb253cf4962643ddb7db7d,65eb1de69438b51c1c55a653,Flembers causes Ceflar.,46247,Ceflar is associated with Flembers.,first,avoidance,0
1907,I was surprised to see Agoriv in yesterday's sample.,second,25,Themaglin causes Agoriv.,Agoriv causes Themaglin.,Themaglin,No other comments. ,Higher degree,79465,1709909470419,1709909390954,female,English,Themaglin,Agoriv,5f69c3324f3cad02a9ac8cec,65eb25875cc8b96eaa8ffb5d,65eb1de69438b51c1c55a653,Themaglin causes Agoriv.,40239,Agoriv is associated with Themaglin.,second,observation,0
1914,I was surprised to see Rebosen in yesterday's sample.,second,37,Denoden causes Rebosen.,Rebosen causes Denoden.,Denoden,,Higher degree,41307,1709909508631,1709909467324,female,English,Denoden,Rebosen,5f1c734773f4a3045d3989aa,65eb25d46a03f0b177f8325e,65eb1de69438b51c1c55a653,Denoden causes Rebosen.,19106,Rebosen is associated with Denoden.,second,observation,0
1916,I was surprised to see Ceflar in yesterday's sample.,first,26,Ceflar causes Flembers.,Flembers causes Ceflar.,Ceflar,,Higher degree,34326,1709909509476,1709909475150,female,English,Ceflar,Flembers,5edc710e50d9be937771a6aa,65eb25d34e769e89462d0c13,65eb1de69438b51c1c55a653,Flembers causes Ceflar.,12474,Ceflar is associated with Flembers.,first,observation,0
1920,I was surprised to see Agoriv in yesterday's sample.,first,46,Ceflar causes Agoriv.,Agoriv causes Ceflar.,Ceflar,,Graduated College,44571,1709909513266,1709909468695,female,English,Agoriv,Ceflar,62cd6efa6212ae6777eb7db1,65eb25d7ad8823bedeb037ee,65eb1de69438b51c1c55a653,Ceflar causes Agoriv.,25969,Agoriv is associated with Ceflar.,first,observation,0
1923,I was surprised to see Ceflar in yesterday's sample.,first,32,Ceflar causes Denoden.,Denoden causes Ceflar.,Ceflar,,Graduated College,32436,1709909518510,1709909486074,female,English,Ceflar,Denoden,63bd81c2c818f30310bfe345,65eb25e2454c42b2005a1180,65eb1de69438b51c1c55a653,Ceflar causes Denoden.,12914,Ceflar is associated with Denoden.,first,observation,0
1963,I was surprised to see Denoden in yesterday's sample.,first,37,Denoden causes Ceflar.,Ceflar causes Denoden.,Denoden,,Graduated College,83603,1709909635059,1709909551456,female,English ,Denoden,Ceflar,5b12fb7be9270900013c4485,65eb2626cdfabf70006de318,65eb1de69438b51c1c55a653,Ceflar causes Denoden.,41506,Denoden is associated with Ceflar.,first,observation,0
1892,I am surprised that you think Agoriv should be removed from the samples.,first,49,Rebosen causes Agoriv.,Agoriv causes Rebosen.,Rebosen,,Graduated College,42622,1709909417394,1709909374772,female,English,Agoriv,Rebosen,646bc273334eee3290a158ed,65eb2575a7ccec4364ab65c9,65eb1de69438b51c1c55a653,Agoriv causes Rebosen.,13460,Agoriv is associated with Rebosen.,first,avoidance,0
1899,I am surprised that you think Flembers should be removed from the samples.,first,62,Flembers causes Ceflar.,Ceflar causes Flembers.,Flembers,,Graduated High-school,170680,1709909448810,1709909278130,female,English,Flembers,Ceflar,5d1b7ca2ebfae6001a9e4401,65eb250f17824585860ca749,65eb1de69438b51c1c55a653,Flembers causes Ceflar.,108836,Flembers is associated with Ceflar.,first,avoidance,0
1908,I was surprised to see Themaglin in yesterday's sample.,second,43,Themaglin causes Agoriv.,Agoriv causes Themaglin.,Themaglin,,Higher degree,48648,1709909477971,1709909429323,male,English,Agoriv,Themaglin,5b9281970ff8eb00018874f9,65eb2595efee24e44d856862,65eb1de69438b51c1c55a653,Agoriv causes Themaglin.,25606,Themaglin is associated with Agoriv.,second,observation,0
1911,I was surprised to see Denoden in yesterday's sample.,second,28,Rebosen causes Denoden.,Denoden causes Rebosen.,Rebosen,The study was clear and easy to understand.,Graduated College,123274,1709909491389,1709909368115,male,English,Rebosen,Denoden,5cdae588cc071e001a1cbbf0,65eb256fe89908f27d3d013b,65eb1de69438b51c1c55a653,Denoden causes Rebosen.,87966,Rebosen is associated with Denoden.,first,observation,0
1918,I am surprised that you think Agoriv should be removed from the samples.,first,21,Denoden causes Agoriv.,Agoriv causes Denoden.,Denoden,,Graduated College,82998,1709909510681,1709909427683,female,English,Agoriv,Denoden,603beb41945077938ed0e6c4,65eb25a981543353d8dc3c7a,65eb1de69438b51c1c55a653,Agoriv causes Denoden.,56958,Denoden is associated with Agoriv.,second,avoidance,0
1932,I am surprised that you think Themaglin should be removed from the samples.,first,42,Ceflar causes Themaglin.,Themaglin causes Ceflar.,Ceflar,,Graduated High-school,28322,1709909545000,1709909516678,female,english,Themaglin,Ceflar,615ec0557ed77fa14b565382,65eb2607ede7bd4c6342bcca,65eb1de69438b51c1c55a653,Themaglin causes Ceflar.,14288,Themaglin is associated with Ceflar.,first,avoidance,0
1937,I was surprised to see Rebosen in yesterday's sample.,second,42,Rebosen causes Denoden.,Denoden causes Rebosen.,Rebosen,,Graduated High-school,49061,1709909561167,1709909512106,male,,Denoden,Rebosen,5ec01cb259458306e6be228f,65eb25fe4e769e89462d0c28,65eb1de69438b51c1c55a653,Denoden causes Rebosen.,30674,Rebosen is associated with Denoden.,second,observation,0
1943,I am surprised that you think Themaglin should be removed from the samples.,first,21,Ceflar causes Themaglin.,Themaglin causes Ceflar.,Ceflar,,Graduated College,40889,1709909571712,1709909530823,male,English,Themaglin,Ceflar,65513393696954392da16f46,65eb260ed11b2ac54bfdf048,65eb1de69438b51c1c55a653,Themaglin causes Ceflar.,19126,Themaglin is associated with Ceflar.,first,avoidance,0
1895,I am surprised that you think Agoriv should be removed from the samples.,first,32,Agoriv causes Themaglin.,Themaglin causes Agoriv.,Agoriv,,Graduated College,50268,1709909428488,1709909378220,female,English,Agoriv,Themaglin,61004752a4786349035ba0cd,65eb257a813edb2b01fe0f56,65eb1de69438b51c1c55a653,Agoriv causes Themaglin.,36405,Agoriv is associated with Themaglin.,first,avoidance,0
1928,I am surprised that you think Flembers should be removed from the samples.,first,36,Denoden causes Flembers.,Flembers causes Denoden.,Denoden,,Higher degree,64201,1709909534246,1709909470045,female,English,Flembers,Denoden,59dd90f6e75b450001a68dac,65eb25d6ff22a7ecfc1fd455,65eb1de69438b51c1c55a653,Flembers causes Denoden.,44291,Flembers is associated with Denoden.,first,avoidance,0
1944,I was surprised to see Themaglin in yesterday's sample.,second,64,Denoden causes Themaglin.,Themaglin causes Denoden.,Denoden,,Graduated High-school,60268,1709909571420,1709909511152,male,English ,Denoden,Themaglin,5c4935e29afd7b00019749ab,65eb2600e7c944fc8c16a6df,65eb1de69438b51c1c55a653,Denoden causes Themaglin.,29566,Denoden is associated with Themaglin.,first,observation,0
1945,I was surprised to see Rebosen in yesterday's sample.,second,44,Rebosen causes Themaglin.,Themaglin causes Rebosen.,Rebosen,,Graduated College,40085,1709909574418,1709909534333,male,English,Themaglin,Rebosen,659d51de867f9aeeb94d5088,65eb26192c3ed516b12ec76d,65eb1de69438b51c1c55a653,Themaglin causes Rebosen.,23119,Themaglin is associated with Rebosen.,first,observation,0
1952,I was surprised to see Agoriv in yesterday's sample.,second,44,Agoriv causes Flembers.,Flembers causes Agoriv.,Agoriv,,Higher degree,74836,1709909597086,1709909522250,female,English,Flembers,Agoriv,5718cf36dd9ef10013e03e14,65eb260ec6ce80fa96ba27c6,65eb1de69438b51c1c55a653,Agoriv causes Flembers.,37095,Agoriv is associated with Flembers.,second,observation,0
1953,I am surprised that you think Agoriv should be removed from the samples.,first,51,Flembers causes Agoriv.,Agoriv causes Flembers.,Flembers,,Graduated High-school,50553,1709909597806,1709909547253,male,English,Agoriv,Flembers,5dbafd726775fe0f7de4e5f9,65eb26282c3ed516b12ec76f,65eb1de69438b51c1c55a653,Flembers causes Agoriv.,32330,Agoriv is associated with Flembers.,first,avoidance,0
1966,I am surprised that you think Agoriv should be removed from the samples.,first,26,Agoriv causes Ceflar.,Ceflar causes Agoriv.,Agoriv,,Graduated College,91689,1709909651832,1709909560143,female,english,Agoriv,Ceflar,5f11ab6d62b89d048d6ad245,65eb262f5aae67e518c9475a,65eb1de69438b51c1c55a653,Agoriv causes Ceflar.,61378,Agoriv is associated with Ceflar.,first,avoidance,0
1967,I was surprised to see Themaglin in yesterday's sample.,first,51,Agoriv causes Themaglin.,Themaglin causes Agoriv.,Agoriv,,Graduated College,46883,1709909652894,1709909606011,female,english,Themaglin,Agoriv,6107b5b78f1c05983711a3b7,65eb265fb11dbc2195ba277d,65eb1de69438b51c1c55a653,Agoriv causes Themaglin.,21928,Agoriv is associated with Themaglin.,second,observation,0
1897,I was surprised to see Agoriv in yesterday's sample.,first,25,Denoden causes Agoriv.,Agoriv causes Denoden.,Denoden,,Higher degree,40279,1709909444923,1709909404644,female,English ,Agoriv,Denoden,602d1bde62da6269b785a104,65eb2593fc33f84a4bda94c7,65eb1de69438b51c1c55a653,Denoden causes Agoriv.,20610,Agoriv is associated with Denoden.,first,observation,0
1910,I am surprised that you think Ceflar should be removed from the samples.,second,22,Ceflar causes Agoriv.,Agoriv causes Ceflar.,Ceflar,,Higher degree,35700,1709909587073,1709909551373,female,English,Agoriv,Ceflar,609fe1299099a3d26ab244ed,65eb25c8085b8bfaa36541e1,65eb1de69438b51c1c55a653,Ceflar causes Agoriv.,20208,Agoriv is associated with Ceflar.,first,avoidance,0
1919,I am surprised that you think Themaglin should be removed from the samples.,first,64,Rebosen causes Themaglin.,Themaglin causes Rebosen.,Rebosen,"In an associative relationship, neither element is necessarily causal",Higher degree,138830,1709909512150,1709909373320,female,English,Themaglin,Rebosen,5b7af69d2f3fc30001374190,65eb257110fcf22edbda94a1,65eb1de69438b51c1c55a653,Themaglin causes Rebosen.,49895,Rebosen is associated with Themaglin.,second,avoidance,0
1925,I was surprised to see Themaglin in yesterday's sample.,second,28,Agoriv causes Themaglin.,Themaglin causes Agoriv.,Agoriv,,Higher degree,35821,1709909518283,1709909482462,female,English ,Agoriv,Themaglin,641dcbf87e7551b7b85439a3,65eb25e3d3f8dd04c5f32c7b,65eb1de69438b51c1c55a653,Agoriv causes Themaglin.,18147,Themaglin is associated with Agoriv.,second,observation,0
1930,I am surprised that you think Denoden should be removed from the samples.,second,35,Denoden causes Agoriv.,Agoriv causes Denoden.,Denoden,,Graduated College,33165,1709909538289,1709909505124,other,english,Agoriv,Denoden,61fa93e25719bc09cb834ddc,65eb25faefee24e44d85687c,65eb1de69438b51c1c55a653,Denoden causes Agoriv.,14633,Denoden is associated with Agoriv.,second,avoidance,0
1934,I am surprised that you think Rebosen should be removed from the samples.,first,34,Themaglin causes Rebosen.,Rebosen causes Themaglin.,Themaglin,,Graduated College,96603,1709909546166,1709909449563,female,,Rebosen,Themaglin,5dfe9f9e19232db3171c8341,65eb25c196d3701edc35ab68,65eb1de69438b51c1c55a653,Rebosen causes Themaglin.,81059,Rebosen is associated with Themaglin.,first,avoidance,0
1938,I was surprised to see Ceflar in yesterday's sample.,second,36,Rebosen causes Ceflar.,Ceflar causes Rebosen.,Rebosen,,Higher degree,36953,1709909558121,1709909521168,female,English,Rebosen,Ceflar,60c33f3e6706eca45e689ea4,65eb260ae1893c264829b3ca,65eb1de69438b51c1c55a653,Rebosen causes Ceflar.,15970,Ceflar is associated with Rebosen.,second,observation,0
1949,I am surprised that you think Rebosen should be removed from the samples.,first,50,Rebosen causes Denoden.,Denoden causes Rebosen.,Rebosen,,Graduated College,71888,1709909583211,1709909511323,male,English,Rebosen,Denoden,5f02e4ccf8b6db18a3a60ccd,65eb26006cd67578d24a10df,65eb1de69438b51c1c55a653,Denoden causes Rebosen.,36511,Denoden is associated with Rebosen.,second,avoidance,0
1912,I am surprised that you think Ceflar should be removed from the samples.,first,41,Ceflar causes Rebosen.,Rebosen causes Ceflar.,Ceflar,,Higher degree,37400,1709909492733,1709909455333,female,English ,Ceflar,Rebosen,6006eb19ee24e80bb26d9c62,65eb25ca6a03f0b177f83259,65eb1de69438b51c1c55a653,Ceflar causes Rebosen.,23496,Ceflar is associated with Rebosen.,first,avoidance,0
1926,I am surprised that you think Flembers should be removed from the samples.,second,30,Themaglin causes Flembers.,Flembers causes Themaglin.,Themaglin,,Higher degree,47564,1709909523947,1709909476383,male,English,Themaglin,Flembers,5f873540a0a90510b39c406d,65eb25dcb139d0170b6531cb,65eb1de69438b51c1c55a653,Flembers causes Themaglin.,26414,Flembers is associated with Themaglin.,second,avoidance,0
1927,I was surprised to see Rebosen in yesterday's sample.,first,28,Rebosen causes Agoriv.,Agoriv causes Rebosen.,Rebosen,,Graduated College,64914,1709909528489,1709909463575,male,English ,Rebosen,Agoriv,63f63c3f18d751963e6dd151,65eb25d01fec2d02e641e324,65eb1de69438b51c1c55a653,Rebosen causes Agoriv.,34753,Rebosen is associated with Agoriv.,first,observation,0
1931,I was surprised to see Agoriv in yesterday's sample.,second,27,Agoriv causes Ceflar.,Ceflar causes Agoriv.,Agoriv,,Graduated High-school,67224,1709909540854,1709909473630,female,English,Ceflar,Agoriv,5fa9b9bdd330fa21c5773078,65eb25da27489ffafd15074e,65eb1de69438b51c1c55a653,Agoriv causes Ceflar.,41421,Agoriv is associated with Ceflar.,second,observation,0
1935,I was surprised to see Ceflar in yesterday's sample.,first,77,Themaglin causes Ceflar.,Ceflar causes Themaglin.,Themaglin,,Graduated College,61643,1709909556193,1709909494550,male,English,Ceflar,Themaglin,5ffb43ceb5a05a56eadca1ad,65eb25f4a398e76ffe7f5c57,65eb1de69438b51c1c55a653,Themaglin causes Ceflar.,38327,Themaglin is associated with Ceflar.,second,observation,0
1942,I was surprised to see Ceflar in yesterday's sample.,second,56,Ceflar causes Agoriv.,Agoriv causes Ceflar.,Ceflar,,Higher degree,60580,1709909568753,1709909508173,female,English,Agoriv,Ceflar,5bfbf60d18430e000186a0b6,65eb25fd584b048be44c9f31,65eb1de69438b51c1c55a653,Ceflar causes Agoriv.,36942,Ceflar is associated with Agoriv.,second,observation,0
1946,I am surprised that you think Rebosen should be removed from the samples.,first,27,Themaglin causes Rebosen.,Rebosen causes Themaglin.,Themaglin,,Higher degree,58433,1709909579355,1709909520922,male,English,Rebosen,Themaglin,5f315cecbe54fd0d2b853c89,65eb260eff22a7ecfc1fd45f,65eb1de69438b51c1c55a653,Rebosen causes Themaglin.,43124,Rebosen is associated with Themaglin.,first,avoidance,0
1956,I am surprised that you think Ceflar should be removed from the samples.,first,34,Denoden causes Ceflar.,Ceflar causes Denoden.,Denoden,,Graduated College,22034,1709909607528,1709909585494,male,English ,Ceflar,Denoden,5efa10698dd7fe7f39bf1be9,65eb261c2887c660bb61e242,65eb1de69438b51c1c55a653,Denoden causes Ceflar.,2307,Ceflar is associated with Denoden.,first,avoidance,0
1921,I am surprised that you think Themaglin should be removed from the samples.,second,30,Ceflar causes Themaglin.,Themaglin causes Ceflar.,Ceflar,,Graduated College,49495,1709909514740,1709909465245,female,English,Ceflar,Themaglin,5ceec4ee32a84b0001a672ed,65eb25c361ce9003d455b566,65eb1de69438b51c1c55a653,Themaglin causes Ceflar.,27766,Ceflar is associated with Themaglin.,first,avoidance,0
1924,I am surprised that you think Ceflar should be removed from the samples.,second,22,Themaglin causes Ceflar.,Ceflar causes Themaglin.,Themaglin,,Higher degree,21569,1709909616575,1709909595006,female,english,Themaglin,Ceflar,609fe1299099a3d26ab244ed,65eb25c8085b8bfaa36541e1,65eb1de69438b51c1c55a653,Ceflar causes Themaglin.,10519,Ceflar is associated with Themaglin.,second,avoidance,0
1950,I was surprised to see Agoriv in yesterday's sample.,second,58,Agoriv causes Rebosen.,Rebosen causes Agoriv.,Agoriv,Thank you,Graduated High-school,152891,1709909582466,1709909429575,female,English ,Rebosen,Agoriv,5e1d20f5173db40a6702cb7e,65eb25a67cf136c84079834c,65eb1de69438b51c1c55a653,Agoriv causes Rebosen.,92173,Rebosen is associated with Agoriv.,first,observation,0
1951,I was surprised to see Agoriv in yesterday's sample.,first,52,Agoriv causes Flembers.,Flembers causes Agoriv.,Agoriv,,Graduated High-school,72553,1709909589118,1709909516565,female,English ,Agoriv,Flembers,59839cb9554956000142d95f,65eb2605a7ccec4364ab660f,65eb1de69438b51c1c55a653,Flembers causes Agoriv.,39940,Flembers is associated with Agoriv.,second,observation,0
1959,I am surprised that you think Flembers should be removed from the samples.,first,33,Flembers causes Denoden.,Denoden causes Flembers.,Flembers,,Graduated College,30688,1709909617869,1709909587181,female,English,Flembers,Denoden,5eebc3207c83c63a3a73d77d,65eb2649ac3068c6b49511dd,65eb1de69438b51c1c55a653,Denoden causes Flembers.,16774,Flembers is associated with Denoden.,first,avoidance,0
1960,I was surprised to see Flembers in yesterday's sample.,second,40,Agoriv causes Flembers.,Flembers causes Agoriv.,Agoriv,,Graduated College,480165,1709909623516,1709909143351,female,English,Agoriv,Flembers,5db40672d496c8000ed780d5,65eb248e2540afec54fc46a0,65eb1de69438b51c1c55a653,Flembers causes Agoriv.,63000,Flembers is associated with Agoriv.,second,observation,0
1969,I was surprised to see Rebosen in yesterday's sample.,first,68,Rebosen causes Ceflar.,Ceflar causes Rebosen.,Rebosen,,Graduated College,123273,1709909657591,1709909534318,male,English ,Rebosen,Ceflar,6539136dbf3e86f94f401083,65eb261155264c2c144a110e,65eb1de69438b51c1c55a653,Ceflar causes Rebosen.,90225,Rebosen is associated with Ceflar.,first,observation,0
1983,I was surprised to see Rebosen in yesterday's sample.,first,69,Rebosen causes Agoriv.,Agoriv causes Rebosen.,Rebosen,,Graduated College,65676,1709909722368,1709909656692,female,English,Rebosen,Agoriv,63c437337eef664e06fdf1f7,65eb2686ff22a7ecfc1fd475,65eb1de69438b51c1c55a653,Rebosen causes Agoriv.,32532,Agoriv is associated with Rebosen.,second,observation,0
1922,I was surprised to see Themaglin in yesterday's sample.,second,41,Flembers causes Themaglin.,Themaglin causes Flembers.,Flembers,,Graduated College,92660,1709909513797,1709909421137,female,English,Flembers,Themaglin,6107247967dedd82e06c6f27,65eb25a5ce0213b0800df9db,65eb1de69438b51c1c55a653,Flembers causes Themaglin.,42895,Themaglin is associated with Flembers.,second,observation,0
1954,I am surprised that you think Ceflar should be removed from the samples.,first,52,Rebosen causes Ceflar.,Ceflar causes Rebosen.,Rebosen,,Higher degree,52035,1709909600256,1709909548221,male,English,Ceflar,Rebosen,573f134fd700ea0007f403eb,65eb2618e89908f27d3d0181,65eb1de69438b51c1c55a653,Ceflar causes Rebosen.,33223,Rebosen is associated with Ceflar.,second,avoidance,0
1955,I was surprised to see Themaglin in yesterday's sample.,first,25,Themaglin causes Agoriv.,Agoriv causes Themaglin.,Themaglin,,Graduated College,102587,1709909602917,1709909500330,female,English,Themaglin,Agoriv,60ba0dedccff8482dad29857,65eb25f5b11dbc2195ba2768,65eb1de69438b51c1c55a653,Themaglin causes Agoriv.,59287,Themaglin is associated with Agoriv.,first,observation,0
1961,I am surprised that you think Rebosen should be removed from the samples.,second,25,Rebosen causes Themaglin.,Themaglin causes Rebosen.,Rebosen,,Higher degree,59460,1709909669668,1709909610208,male,English,Themaglin,Rebosen,5d8baf023435540015cd4860,65eb263bac3068c6b49511d7,65eb1de69438b51c1c55a653,Themaglin causes Rebosen.,38680,Rebosen is associated with Themaglin.,second,avoidance,0
1975,I am surprised that you think Flembers should be removed from the samples.,first,20,Flembers causes Denoden.,Denoden causes Flembers.,Flembers,,Higher degree,56217,1709909678116,1709909621899,female,English,Flembers,Denoden,65772a4d9d3a8df93b321f8c,65eb266fc8f8058f673b3867,65eb1de69438b51c1c55a653,Flembers causes Denoden.,36398,Denoden is associated with Flembers.,second,avoidance,0
1993,I am surprised that you think Flembers should be removed from the samples.,second,60,Flembers causes Denoden.,Denoden causes Flembers.,Flembers,,Graduated College,149328,1709909744484,1709909595156,female,English,Denoden,Flembers,60d6355b141b39035fda0e50,65eb26506ab7cab31b9f2ff6,65eb1de69438b51c1c55a653,Flembers causes Denoden.,118979,Flembers is associated with Denoden.,second,avoidance,0
2004,I am surprised that you think Flembers should be removed from the samples.,first,63,Ceflar causes Flembers.,Flembers causes Ceflar.,Ceflar,,Higher degree,45892,1709909777510,1709909731618,female,EnGlish,Flembers,Ceflar,5694de04e0c800000559f70b,65eb26d95aae67e518c9477a,65eb1de69438b51c1c55a653,Ceflar causes Flembers.,22343,Flembers is associated with Ceflar.,first,avoidance,0
2005,I was surprised to see Ceflar in yesterday's sample.,second,60,Ceflar causes Flembers.,Flembers causes Ceflar.,Ceflar,"Interesting study, thanks!",Graduated College,110252,1709909783974,1709909673722,female,English ,Flembers,Ceflar,644bf7faefa2668b9a68e8ec,65eb26a0a21d0d581ffe0fbe,65eb1de69438b51c1c55a653,Flembers causes Ceflar.,54024,Ceflar is associated with Flembers.,second,observation,0
1933,I am surprised that you think Rebosen should be removed from the samples.,second,66,Rebosen causes Denoden.,Denoden causes Rebosen.,Rebosen,,Graduated College,154038,1709909545699,1709909391661,male,English,Denoden,Rebosen,5d3c627f61f2fa000136866b,65eb258861ce9003d455b555,65eb1de69438b51c1c55a653,Rebosen causes Denoden.,115149,Rebosen is associated with Denoden.,second,avoidance,0
1981,I am surprised that you think Agoriv should be removed from the samples.,first,36,Ceflar causes Agoriv.,Agoriv causes Ceflar.,Ceflar,,Graduated High-school,46785,1709909696033,1709909649248,male,English,Agoriv,Ceflar,6401c41ef621f07e133979e9,65eb268cefee24e44d8568a6,65eb1de69438b51c1c55a653,Ceflar causes Agoriv.,28503,Ceflar is associated with Agoriv.,second,avoidance,0
1991,I was surprised to see Ceflar in yesterday's sample.,second,51,Ceflar causes Flembers.,Flembers causes Ceflar.,Ceflar,,Graduated College,125230,1709909744030,1709909618800,female,English ,Flembers,Ceflar,5bf6bbeb31f7850001d24ce2,65eb265d11a25e4a979511ba,65eb1de69438b51c1c55a653,Flembers causes Ceflar.,85371,Flembers is associated with Ceflar.,first,observation,0
1994,I am surprised that you think Ceflar should be removed from the samples.,second,30,Flembers causes Ceflar.,Ceflar causes Flembers.,Flembers,None ,Graduated College,26976,1709909748399,1709909721423,male,English,Flembers,Ceflar,5eeb6aa862000a2d06e1b885,65eb26d5c6ce80fa96ba2821,65eb1de69438b51c1c55a653,Ceflar causes Flembers.,14377,Flembers is associated with Ceflar.,first,avoidance,0
1997,I am surprised that you think Flembers should be removed from the samples.,second,58,Flembers causes Ceflar.,Ceflar causes Flembers.,Flembers,,Graduated College,63259,1709909755468,1709909692209,female,English,Ceflar,Flembers,5b673490e89b0d0001a885e7,65eb26b6d601bbd3d2f83358,65eb1de69438b51c1c55a653,Ceflar causes Flembers.,39050,Ceflar is associated with Flembers.,first,avoidance,0
2002,I was surprised to see Denoden in yesterday's sample.,second,67,Denoden causes Flembers.,Flembers causes Denoden.,Denoden,,Graduated College,45087,1709909764085,1709909718998,female,English ,Flembers,Denoden,56fee62304254b000e00169b,65eb26cd5aae67e518c94776,65eb1de69438b51c1c55a653,Denoden causes Flembers.,25339,Denoden is associated with Flembers.,second,observation,0
2018,I am surprised that you think Agoriv should be removed from the samples.,second,36,Agoriv causes Denoden.,Denoden causes Agoriv.,Agoriv,,Graduated College,63686,1709909806795,1709909743109,male,English,Denoden,Agoriv,5e81ad7cb706bb88bc5c2fc8,65eb26e57c979c516995ae3b,65eb1de69438b51c1c55a653,Agoriv causes Denoden.,34436,Agoriv is associated with Denoden.,second,avoidance,0
2032,I am surprised that you think Flembers should be removed from the samples.,first,36,Flembers causes Agoriv.,Agoriv causes Flembers.,Flembers,,Graduated High-school,64166,1709909842420,1709909778254,female,English,Flembers,Agoriv,5af07de697a14300017d0c4f,65eb27056cd67578d24a1142,65eb1de69438b51c1c55a653,Flembers causes Agoriv.,35537,Agoriv is associated with Flembers.,second,avoidance,0
1947,I was surprised to see Themaglin in yesterday's sample.,first,21,Themaglin causes Agoriv.,Agoriv causes Themaglin.,Themaglin,,Graduated High-school,38927,1709909580630,1709909541703,female,english,Themaglin,Agoriv,60e074644d4c7314b8dd0c41,65eb261f75cd1ae288c97b49,65eb1de69438b51c1c55a653,Agoriv causes Themaglin.,22416,Themaglin is associated with Agoriv.,first,observation,0
1974,I am surprised that you think Themaglin should be removed from the samples.,second,46,Themaglin causes Denoden.,Denoden causes Themaglin.,Themaglin,,Graduated High-school,48198,1709909677606,1709909629408,male,english,Denoden,Themaglin,62ad9574778df45973491084,65eb26777b102edfe495ad66,65eb1de69438b51c1c55a653,Denoden causes Themaglin.,26488,Denoden is associated with Themaglin.,first,avoidance,0
2045,I am surprised that you think Ceflar should be removed from the samples.,second,61,Ceflar causes Rebosen.,Rebosen causes Ceflar.,Ceflar,,Higher degree,79290,1709909864742,1709909785452,female,english,Rebosen,Ceflar,5c75c7c92c662600014eb328,65eb2706e89908f27d3d01d9,65eb1de69438b51c1c55a653,Ceflar causes Rebosen.,43979,Rebosen is associated with Ceflar.,first,avoidance,0
2053,I was surprised to see Themaglin in yesterday's sample.,first,24,Flembers causes Themaglin.,Themaglin causes Flembers.,Flembers,,Graduated College,108776,1709909873410,1709909764634,male,English,Themaglin,Flembers,65391ab9675c5246bf96aacf,65eb26fc454c42b2005a11dc,65eb1de69438b51c1c55a653,Themaglin causes Flembers.,59092,Flembers is associated with Themaglin.,second,observation,0
2057,I was surprised to see Themaglin in yesterday's sample.,first,65,Themaglin causes Ceflar.,Ceflar causes Themaglin.,Themaglin,,Higher degree,66750,1709909884746,1709909817996,male,English,Themaglin,Ceflar,605f0261f7535729c1a9881e,65eb272fc67d1dae4f5e09a8,65eb1de69438b51c1c55a653,Ceflar causes Themaglin.,41333,Themaglin is associated with Ceflar.,first,observation,0
2081,I was surprised to see Denoden in yesterday's sample.,first,45,Agoriv causes Denoden.,Denoden causes Agoriv.,Agoriv,,Graduated College,72281,1709909936101,1709909863820,female,English,Denoden,Agoriv,5daccbd747b9d20013a2e63c,65eb275d9215855d621fd59a,65eb1de69438b51c1c55a653,Denoden causes Agoriv.,29537,Agoriv is associated with Denoden.,second,observation,0
2087,I am surprised that you think Flembers should be removed from the samples.,first,32,Denoden causes Flembers.,Flembers causes Denoden.,Denoden,,Higher degree,56880,1709909946872,1709909889992,female,English ,Flembers,Denoden,5aea84133ba4810001da92be,65eb277bf4ca300b44278f52,65eb1de69438b51c1c55a653,Denoden causes Flembers.,31246,Denoden is associated with Flembers.,second,avoidance,0
2089,I am surprised that you think Agoriv should be removed from the samples.,second,46,Agoriv causes Themaglin.,Themaglin causes Agoriv.,Agoriv,,Graduated High-school,57597,1709909956459,1709909898862,male,English ,Themaglin,Agoriv,64147831ba6dfdfb997636e8,65eb27824df22a4f0831a471,65eb1de69438b51c1c55a653,Themaglin causes Agoriv.,31491,Agoriv is associated with Themaglin.,second,avoidance,0
1957,I am surprised that you think Denoden should be removed from the samples.,first,32,Agoriv causes Denoden.,Denoden causes Agoriv.,Agoriv,I would actually like to have answered the question as neither but was not an option so I just picked at random ,Higher degree,105405,1709909608816,1709909503411,female,English ,Denoden,Agoriv,62d16f2afa6cba3484ce611d,65eb25f7f4ca300b44278eb9,65eb1de69438b51c1c55a653,Denoden causes Agoriv.,37917,Denoden is associated with Agoriv.,first,avoidance,0
1958,I was surprised to see Flembers in yesterday's sample.,first,38,Flembers causes Themaglin.,Themaglin causes Flembers.,Flembers,,Graduated College,66553,1709909615298,1709909548745,female,English,Flembers,Themaglin,5bfc6305ab1223000193cbb9,65eb262161ce9003d455b5a6,65eb1de69438b51c1c55a653,Themaglin causes Flembers.,36472,Themaglin is associated with Flembers.,second,observation,0
1962,I was surprised to see Denoden in yesterday's sample.,second,46,Denoden causes Themaglin.,Themaglin causes Denoden.,Denoden,,Higher degree,44282,1709909635493,1709909591211,male,English,Themaglin,Denoden,6414254cd69f0656e81ae28c,65eb264c45f27ff2527fa7c6,65eb1de69438b51c1c55a653,Themaglin causes Denoden.,23208,Denoden is associated with Themaglin.,second,observation,0
1964,I am surprised that you think Themaglin should be removed from the samples.,first,23,Themaglin causes Denoden.,Denoden causes Themaglin.,Themaglin,,Higher degree,61917,1709909640112,1709909578195,female,English ,Themaglin,Denoden,601ffaf37df84c55d0b6775c,65eb264432c887872a07d45b,65eb1de69438b51c1c55a653,Themaglin causes Denoden.,40415,Themaglin is associated with Denoden.,first,avoidance,0
1965,I am surprised that you think Rebosen should be removed from the samples.,second,44,Rebosen causes Denoden.,Denoden causes Rebosen.,Rebosen,,Graduated College,59731,1709909644611,1709909584880,female,Enlish,Denoden,Rebosen,6140ce04fc55c3149baf0f8b,65eb262411a25e4a979511a6,65eb1de69438b51c1c55a653,Denoden causes Rebosen.,24469,Rebosen is associated with Denoden.,second,avoidance,0
2000,I was surprised to see Agoriv in yesterday's sample.,first,43,Agoriv causes Denoden.,Denoden causes Agoriv.,Agoriv, N/A,Graduated High-school,84255,1709909762058,1709909677803,male,English,Agoriv,Denoden,61037333eaacd23a3460ffc2,65eb269aec88669bc2689be6,65eb1de69438b51c1c55a653,Denoden causes Agoriv.,37922,Agoriv is associated with Denoden.,first,observation,0
2001,I am surprised that you think Flembers should be removed from the samples.,first,55,Themaglin causes Flembers.,Flembers causes Themaglin.,Themaglin,,Graduated High-school,113839,1709909762413,1709909648574,female,english,Flembers,Themaglin,5df2ebac820526203e557d37,65eb26808dda54013d61e25c,65eb1de69438b51c1c55a653,Themaglin causes Flembers.,54542,Themaglin is associated with Flembers.,second,avoidance,0
2007,I am surprised that you think Denoden should be removed from the samples.,second,70,Denoden causes Rebosen.,Rebosen causes Denoden.,Denoden,,Graduated College,88992,1709909786710,1709909697718,female,English,Rebosen,Denoden,614b3ec34d93be8b23257fca,65eb26ad81543353d8dc3cdf,65eb1de69438b51c1c55a653,Denoden causes Rebosen.,37720,Rebosen is associated with Denoden.,first,avoidance,0
1968,I was surprised to see Rebosen in yesterday's sample.,first,23,Ceflar causes Rebosen.,Rebosen causes Ceflar.,Ceflar,,Graduated College,50711,1709909656790,1709909606079,female,english,Rebosen,Ceflar,60ff6b0720fb724536710e7a,65eb265f96d3701edc35abb3,65eb1de69438b51c1c55a653,Ceflar causes Rebosen.,24962,Rebosen is associated with Ceflar.,first,observation,0
1973,I am surprised that you think Flembers should be removed from the samples.,second,27,Agoriv causes Flembers.,Flembers causes Agoriv.,Agoriv,,Higher degree,98881,1709909674535,1709909575654,female,english,Agoriv,Flembers,5eb126c5f13db7000855c7b7,65eb264385bb2717d03b6fa6,65eb1de69438b51c1c55a653,Flembers causes Agoriv.,60082,Agoriv is associated with Flembers.,first,avoidance,0
1976,I am surprised that you think Ceflar should be removed from the samples.,first,37,Themaglin causes Ceflar.,Ceflar causes Themaglin.,Themaglin,,,27095,1709909680522,1709909653427,female,,Ceflar,Themaglin,5f32fa63575cf50db8d2cc90,65eb26901fec2d02e641e356,65eb1de69438b51c1c55a653,Ceflar causes Themaglin.,17648,Themaglin is associated with Ceflar.,second,avoidance,0
1987,I was surprised to see Ceflar in yesterday's sample.,first,22,Ceflar causes Themaglin.,Themaglin causes Ceflar.,Ceflar,,Graduated College,43907,1709909726145,1709909682238,male,English,Ceflar,Themaglin,60ca20a5bd71514ecaa909ca,65eb26afcdfabf70006de32a,65eb1de69438b51c1c55a653,Themaglin causes Ceflar.,28096,Themaglin is associated with Ceflar.,second,observation,0
1995,I was surprised to see Flembers in yesterday's sample.,first,52,Flembers causes Rebosen.,Rebosen causes Flembers.,Flembers,All worked well,Higher degree,63821,1709909749026,1709909685205,female,English,Flembers,Rebosen,56bb120a724769000cb7462b,65eb26ab87df1a888c0b6742,65eb1de69438b51c1c55a653,Rebosen causes Flembers.,34558,Flembers is associated with Rebosen.,first,observation,0
1996,I was surprised to see Themaglin in yesterday's sample.,second,49,Themaglin causes Agoriv.,Agoriv causes Themaglin.,Themaglin,,Graduated College,72731,1709909753905,1709909681174,female,,Agoriv,Themaglin,6234af5f445047924ab4b768,65eb26a669d580d8564ca03f,65eb1de69438b51c1c55a653,Agoriv causes Themaglin.,44047,Themaglin is associated with Agoriv.,second,observation,0
2036,I am surprised that you think Agoriv should be removed from the samples.,first,32,Agoriv causes Ceflar.,Ceflar causes Agoriv.,Agoriv,,Graduated College,46873,1709909842176,1709909795303,male,English,Agoriv,Ceflar,63d005a719b996762d74064a,65eb271dac3068c6b4951225,65eb1de69438b51c1c55a653,Ceflar causes Agoriv.,18855,Ceflar is associated with Agoriv.,second,avoidance,0
2056,I was surprised to see Flembers in yesterday's sample.,first,42,Flembers causes Agoriv.,Agoriv causes Flembers.,Flembers,,Graduated College,56803,1709909877761,1709909820958,male,English,Flembers,Agoriv,5f5a89d96aeefe16da5edf39,65eb2735afdfb6a8c07d6b3c,65eb1de69438b51c1c55a653,Agoriv causes Flembers.,36031,Agoriv is associated with Flembers.,second,observation,0
1970,I am surprised that you think Ceflar should be removed from the samples.,second,32,Ceflar causes Denoden.,Denoden causes Ceflar.,Ceflar,,Higher degree,66445,1709909663458,1709909597013,male,English,Denoden,Ceflar,60111122b75fc34c4f27cdda,65eb2655babf00edfeb037fd,65eb1de69438b51c1c55a653,Denoden causes Ceflar.,44333,Denoden is associated with Ceflar.,first,avoidance,0
1971,I am surprised that you think Ceflar should be removed from the samples.,first,42,Ceflar causes Flembers.,Flembers causes Ceflar.,Ceflar,,Graduated College,92408,1709909669329,1709909576921,female,English,Ceflar,Flembers,59e52174e75b450001a69189,65eb263e872e02b4a07982fc,65eb1de69438b51c1c55a653,Ceflar causes Flembers.,66558,Flembers is associated with Ceflar.,second,avoidance,0
1977,I was surprised to see Flembers in yesterday's sample.,second,33,Denoden causes Flembers.,Flembers causes Denoden.,Denoden,,Higher degree,162749,1709909687862,1709909525113,male,Malayalam,Denoden,Flembers,63ea44a0adefd2af8e13015c,65eb2610f557996ec09f302c,65eb1de69438b51c1c55a653,Flembers causes Denoden.,140040,Denoden is associated with Flembers.,first,observation,0
1980,I was surprised to see Agoriv in yesterday's sample.,second,32,Agoriv causes Ceflar.,Ceflar causes Agoriv.,Agoriv,,Graduated College,123863,1709909628987,1709909505124,female,English,Ceflar,Agoriv,6310a8e72d2a091bb08a0c97,65eb262dec88669bc2689bbe,65eb1de69438b51c1c55a653,Agoriv causes Ceflar.,96626,Agoriv is associated with Ceflar.,second,observation,0
1986,I am surprised that you think Ceflar should be removed from the samples.,second,25,Denoden causes Ceflar.,Ceflar causes Denoden.,Denoden,,Graduated College,38827,1709909722616,1709909683789,female,English ,Denoden,Ceflar,60fce66ff77653f4d901411a,65eb262bf9a537da84856884,65eb1de69438b51c1c55a653,Ceflar causes Denoden.,23386,Ceflar is associated with Denoden.,second,avoidance,0
1989,I was surprised to see Ceflar in yesterday's sample.,second,29,Flembers causes Ceflar.,Ceflar causes Flembers.,Flembers,,Graduated College,52368,1709909729117,1709909676749,male,ENGLISH ,Flembers,Ceflar,64786eefa8c32ca9114f035e,65eb26a987df1a888c0b6740,65eb1de69438b51c1c55a653,Flembers causes Ceflar.,36054,Ceflar is associated with Flembers.,second,observation,0
1990,I was surprised to see Agoriv in yesterday's sample.,second,38,Agoriv causes Ceflar.,Ceflar causes Agoriv.,Agoriv,,Higher degree,66601,1709909739630,1709909673029,female,English ,Ceflar,Agoriv,59c3cec45364260001dc4e61,65eb26a0b139d0170b65321e,65eb1de69438b51c1c55a653,Ceflar causes Agoriv.,39359,Agoriv is associated with Ceflar.,second,observation,0
1999,I am surprised that you think Themaglin should be removed from the samples.,first,43,Themaglin causes Ceflar.,Ceflar causes Themaglin.,Themaglin,,Graduated High-school,121199,1709909759389,1709909638190,female,English,Themaglin,Ceflar,6032276df732e91d963c2bd8,65eb2678813edb2b01fe0fb8,65eb1de69438b51c1c55a653,Themaglin causes Ceflar.,72324,Themaglin is associated with Ceflar.,first,avoidance,0
1982,I am surprised that you think Denoden should be removed from the samples.,second,58,Denoden causes Ceflar.,Ceflar causes Denoden.,Denoden,,Graduated High-school,66974,1709909705621,1709909638647,female,English,Ceflar,Denoden,5c838a63532afd001506fd34,65eb2681719bcd3081dc3ca9,65eb1de69438b51c1c55a653,Denoden causes Ceflar.,40884,Ceflar is associated with Denoden.,first,avoidance,0
1985,I am surprised that you think Flembers should be removed from the samples.,first,56,Flembers causes Ceflar.,Ceflar causes Flembers.,Flembers,,Graduated High-school,45442,1709909757370,1709909711928,male,English,Flembers,Ceflar,5abf31f8436f550001ffa822,65eb26a7d7f2e3c9aa7d6ae5,65eb1de69438b51c1c55a653,Flembers causes Ceflar.,25570,Flembers is associated with Ceflar.,first,avoidance,0
1988,I was surprised to see Agoriv in yesterday's sample.,second,33,Flembers causes Agoriv.,Agoriv causes Flembers.,Flembers,,Higher degree,49601,1709909727528,1709909677927,female,English,Flembers,Agoriv,5c28f3efdfe7fc0001cd8b28,65eb26a6ad8823bedeb03839,65eb1de69438b51c1c55a653,Agoriv causes Flembers.,33216,Agoriv is associated with Flembers.,second,observation,0
1992,I am surprised that you think Agoriv should be removed from the samples.,second,35,Flembers causes Agoriv.,Agoriv causes Flembers.,Flembers,,Graduated College,71771,1709909742645,1709909670874,female,English,Flembers,Agoriv,653fcf588ab0516beb4bf546,65eb269a05812e2727637e2c,65eb1de69438b51c1c55a653,Agoriv causes Flembers.,43535,Agoriv is associated with Flembers.,second,avoidance,0
2009,I am surprised that you think Denoden should be removed from the samples.,second,27,Denoden causes Agoriv.,Agoriv causes Denoden.,Denoden,,Graduated College,210142,1709909789011,1709909578869,female,English,Agoriv,Denoden,5a78f57a2a842c0001fc43db,65eb264471dabeb0c788c6e4,65eb1de69438b51c1c55a653,Agoriv causes Denoden.,49329,Denoden is associated with Agoriv.,second,avoidance,0
2015,I was surprised to see Rebosen in yesterday's sample.,second,43,Rebosen causes Themaglin.,Themaglin causes Rebosen.,Rebosen,,Graduated High-school,41909,1709909797042,1709909755133,female,English,Themaglin,Rebosen,5589e729fdf99b18bd86d2c8,65eb26f4d11b2ac54bfdf08c,65eb1de69438b51c1c55a653,Themaglin causes Rebosen.,25180,Rebosen is associated with Themaglin.,second,observation,0
