submission_id,age,choice1,choice2,choiceNameFirst,comments,condition,education,experiment_duration,experiment_end_time,experiment_start_time,gender,languages,name1,name2,prolific_pid,prolific_session_id,prolific_study_id,response,responseTime,trialNR
1223,71,Denoden causes Rebosen.,Rebosen causes Denoden.,Denoden,,firstTopic,Did not graduate High-school,44888,1705060767414,1705060722526,female,English ,Denoden,Rebosen,61684a263a8f291d6b91bc71,65a1296afb05be4e2018dbbf,65a122e9f05db70790ca9ad7,Rebosen causes Denoden.,25021,0
1224,28,Denoden causes Rebosen.,Rebosen causes Denoden.,Denoden,,secondTopic,Graduated College,29524,1705060765517,1705060735993,female,english,Rebosen,Denoden,5eceb8411480c30fb89c7c54,65a1297c3e3c1e062944d092,65a122e9f05db70790ca9ad7,Denoden causes Rebosen.,13012,0
1225,49,Flembers causes Denoden.,Denoden causes Flembers.,Flembers,,firstTopic,Graduated High-school,68113,1705060776488,1705060708375,female,English,Flembers,Denoden,5ec965e582d87846468261ef,65a1295aea25afdc0b128cdb,65a122e9f05db70790ca9ad7,Flembers causes Denoden.,27618,0
1238,26,Ceflar causes Flembers.,Flembers causes Ceflar.,Ceflar,,secondTopic,Graduated College,42891,1705060825022,1705060782131,female,English,Flembers,Ceflar,6310a6c16d94cd480a8d745c,65a129a6080aacaa17759e4f,65a122e9f05db70790ca9ad7,Ceflar causes Flembers.,16188,0
1254,32,Flembers causes Denoden.,Denoden causes Flembers.,Flembers,,secondTopic,Higher degree,31868,1705060872268,1705060840400,female,Polish,Flembers,Denoden,57157f2530185b0008b40606,65a129da3aeaef761c62e1cb,65a122e9f05db70790ca9ad7,Denoden causes Flembers.,14908,0
1226,66,Agoriv causes Themaglin.,Themaglin causes Agoriv.,Agoriv,,firstTopic,Graduated High-school,53691,1705060778716,1705060725025,male,English,Agoriv,Themaglin,5ceef64577a506001714c032,65a1296b67f422e1d9acbcdd,65a122e9f05db70790ca9ad7,Themaglin causes Agoriv.,30448,0
1232,31,Rebosen causes Themaglin.,Themaglin causes Rebosen.,Rebosen,,firstTopic,Higher degree,55492,1705060808334,1705060752842,female,English,Rebosen,Themaglin,60fd58f89d037589c34f5a18,65a1298c51e0a8b62ad58542,65a122e9f05db70790ca9ad7,Rebosen causes Themaglin.,25527,0
1243,23,Ceflar causes Denoden.,Denoden causes Ceflar.,Ceflar,,secondTopic,Graduated College,23050,1705060831300,1705060808250,female,"english, welsh",Ceflar,Denoden,5aa297fe1ade740001b94bb7,65a129c31f0ed40bc632a91a,65a122e9f05db70790ca9ad7,Ceflar causes Denoden.,8944,0
1255,56,Denoden causes Ceflar.,Ceflar causes Denoden.,Denoden,,secondTopic,Higher degree,62172,1705060872758,1705060810586,female,English,Denoden,Ceflar,6076b6aef23dd6abe21ce231,65a129c44a417b3218a2b268,65a122e9f05db70790ca9ad7,Denoden causes Ceflar.,37469,0
1227,42,Flembers causes Rebosen.,Rebosen causes Flembers.,Flembers,,firstTopic,Higher degree,25968,1705060797179,1705060771211,male,English,Flembers,Rebosen,5cb5941ba7dfd50001759040,65a1299e03c8518df19b7262,65a122e9f05db70790ca9ad7,Rebosen causes Flembers.,15326,0
1228,38,Flembers causes Denoden.,Denoden causes Flembers.,Flembers,,secondTopic,Graduated High-school,48472,1705060802455,1705060753983,female,English,Denoden,Flembers,6158e8533a2bc1a989fc0b22,65a1298a8965b3592f77355e,65a122e9f05db70790ca9ad7,Flembers causes Denoden.,13548,0
1246,46,Flembers causes Rebosen.,Rebosen causes Flembers.,Flembers,no,firstTopic,Higher degree,39870,1705060841391,1705060801521,female,English,Flembers,Rebosen,60400327a152361b2838dcc3,65a129b9133343091318d943,65a122e9f05db70790ca9ad7,Rebosen causes Flembers.,17537,0
1251,39,Flembers causes Agoriv.,Agoriv causes Flembers.,Flembers,,firstTopic,Graduated High-school,30724,1705060858623,1705060827899,male,English,Agoriv,Flembers,5b11413a30d562000155b605,65a129a13f1e0b7d5f097e12,65a122e9f05db70790ca9ad7,Flembers causes Agoriv.,5934,0
1252,28,Denoden causes Agoriv.,Agoriv causes Denoden.,Denoden,,secondTopic,Higher degree,46298,1705060864669,1705060818371,male,English,Denoden,Agoriv,5af88400a013a50001033441,65a129cc980d7c61b759126b,65a122e9f05db70790ca9ad7,Agoriv causes Denoden.,26139,0
1257,71,Agoriv causes Rebosen.,Rebosen causes Agoriv.,Agoriv,,secondTopic,Graduated College,66604,1705060878334,1705060811730,male,English ,Rebosen,Agoriv,5b90696e50f7ce00016007aa,65a129c1c95bfc2b1c014aee,65a122e9f05db70790ca9ad7,Agoriv causes Rebosen.,35456,0
1229,25,Denoden causes Flembers.,Flembers causes Denoden.,Denoden,,firstTopic,Graduated High-school,55486,1705060798568,1705060743082,female,english,Denoden,Flembers,5e0b8090fd5911000db67e31,65a12981b2f4d9d7476160a6,65a122e9f05db70790ca9ad7,Flembers causes Denoden.,27427,0
1230,55,Flembers causes Themaglin.,Themaglin causes Flembers.,Flembers,,firstTopic,Graduated College,90095,1705060802923,1705060712828,female,English ,Flembers,Themaglin,5c1e190a55683b000134b778,65a1295bdf8a6c4d6768cb18,65a122e9f05db70790ca9ad7,Themaglin causes Flembers.,48999,0
1239,32,Themaglin causes Rebosen.,Rebosen causes Themaglin.,Themaglin,,secondTopic,Higher degree,47720,1705060825979,1705060778259,female,English,Themaglin,Rebosen,607d6e86f96c147cf2b3223c,65a129a1f05db70790ca9cb1,65a122e9f05db70790ca9ad7,Rebosen causes Themaglin.,29051,0
1240,40,Agoriv causes Themaglin.,Themaglin causes Agoriv.,Agoriv,,firstTopic,Higher degree,60815,1705060826314,1705060765499,female,English,Agoriv,Themaglin,6560ace4c161540f384bad46,65a1298e368849e7d7878f34,65a122e9f05db70790ca9ad7,Agoriv causes Themaglin.,35559,0
1250,46,Denoden causes Agoriv.,Agoriv causes Denoden.,Denoden,,firstTopic,Graduated College,59263,1705060853434,1705060794171,female,English,Denoden,Agoriv,5c509355b65d46000189ada6,65a129b304810323fe839a58,65a122e9f05db70790ca9ad7,Denoden causes Agoriv.,30659,0
1231,55,Denoden causes Ceflar.,Ceflar causes Denoden.,Denoden,,secondTopic,Graduated College,78292,1705060807460,1705060729168,male,English,Denoden,Ceflar,609d81679bcff493c7d143de,65a1296dfb05be4e2018dbc1,65a122e9f05db70790ca9ad7,Ceflar causes Denoden.,56678,0
1233,69,Flembers causes Agoriv.,Agoriv causes Flembers.,Flembers,,firstTopic,Higher degree,71351,1705060810465,1705060739114,female,English,Agoriv,Flembers,5d10a559017b2a000179ecb6,65a1297832d7d774f9e11e92,65a122e9f05db70790ca9ad7,Agoriv causes Flembers.,39687,0
1235,30,Rebosen causes Ceflar.,Ceflar causes Rebosen.,Rebosen,,firstTopic,Higher degree,34316,1705060812706,1705060778390,female,english,Rebosen,Ceflar,5d93ab29efb8550018d5626c,65a129a472a68c6b5e5910f8,65a122e9f05db70790ca9ad7,Rebosen causes Ceflar.,15129,0
1237,49,Denoden causes Rebosen.,Rebosen causes Denoden.,Denoden,,firstTopic,Higher degree,38470,1705060822902,1705060784432,female,English,Rebosen,Denoden,5c927effc719fc00157df08d,65a129a967f422e1d9acbcfb,65a122e9f05db70790ca9ad7,Rebosen causes Denoden.,19926,0
1244,30,Ceflar causes Flembers.,Flembers causes Ceflar.,Ceflar,,secondTopic,Higher degree,48160,1705060839685,1705060791525,female,English,Flembers,Ceflar,5e68b5323f1867000dd39a05,65a129b19138e6b8ad9b7293,65a122e9f05db70790ca9ad7,Ceflar causes Flembers.,31952,0
1248,52,Agoriv causes Flembers.,Flembers causes Agoriv.,Agoriv,,secondTopic,Higher degree,33804,1705060851317,1705060817513,male,English ,Agoriv,Flembers,56114aa67ffc8a000f81148d,65a129c8ded39e553a406324,65a122e9f05db70790ca9ad7,Flembers causes Agoriv.,16383,0
1253,35,Themaglin causes Agoriv.,Agoriv causes Themaglin.,Themaglin,,secondTopic,Higher degree,45302,1705060865181,1705060819879,male,,Agoriv,Themaglin,5fe09b10da39ca1cf723cc63,65a129ba54f0e517aa7e9ef7,65a122e9f05db70790ca9ad7,Agoriv causes Themaglin.,26745,0
1234,25,Agoriv causes Rebosen.,Rebosen causes Agoriv.,Agoriv,,secondTopic,Higher degree,48611,1705060811962,1705060763351,female,English ,Agoriv,Rebosen,61193a2aa07c76d4c3db2b81,65a129953aeaef761c62e1b0,65a122e9f05db70790ca9ad7,Agoriv causes Rebosen.,27677,0
1242,53,Flembers causes Denoden.,Denoden causes Flembers.,Flembers,,secondTopic,Higher degree,37394,1705060830663,1705060793269,female,English,Flembers,Denoden,5d4820dcf624e100011165ee,65a129b05a6399c66c802555,65a122e9f05db70790ca9ad7,Denoden causes Flembers.,14821,0
1249,49,Themaglin causes Ceflar.,Ceflar causes Themaglin.,Themaglin,,secondTopic,Graduated College,48032,1705060851743,1705060803711,female,English,Ceflar,Themaglin,5fb7ede2a2e58b4413cadee4,65a129bf1822e6e7188ce99e,65a122e9f05db70790ca9ad7,Themaglin causes Ceflar.,23008,0
1236,27,Themaglin causes Rebosen.,Rebosen causes Themaglin.,Themaglin,,firstTopic,Higher degree,29412,1705060818746,1705060789334,female,English,Themaglin,Rebosen,60f58b29685594f5e85498ac,65a129afaa5da53d9554b095,65a122e9f05db70790ca9ad7,Themaglin causes Rebosen.,11616,0
1245,28,Flembers causes Rebosen.,Rebosen causes Flembers.,Flembers,,secondTopic,Graduated College,34105,1705060841153,1705060807048,female,English,Flembers,Rebosen,5b59ea857ac6d70001aae449,65a129c59394712d91014ba4,65a122e9f05db70790ca9ad7,Rebosen causes Flembers.,16842,0
1241,57,Ceflar causes Themaglin.,Themaglin causes Ceflar.,Ceflar,,firstTopic,Higher degree,38920,1705060828974,1705060790054,male,english,Themaglin,Ceflar,5e85ab2b4fc4231a0781facb,65a129ad13b590e6e1878ee1,65a122e9f05db70790ca9ad7,Ceflar causes Themaglin.,19686,0
1247,40,Ceflar causes Denoden.,Denoden causes Ceflar.,Ceflar,,secondTopic,Graduated College,32263,1705060844035,1705060811772,male,English,Denoden,Ceflar,5ed0dc47fd66121c75e88443,65a129c55a6399c66c802561,65a122e9f05db70790ca9ad7,Ceflar causes Denoden.,18146,0
1256,30,Agoriv causes Rebosen.,Rebosen causes Agoriv.,Agoriv,,secondTopic,Graduated College,48198,1705060876883,1705060828685,female,English,Agoriv,Rebosen,5ff17d1bbbdf7f5b35a0b334,65a129c2ea25afdc0b128cfc,65a122e9f05db70790ca9ad7,Rebosen causes Agoriv.,25848,0
1258,58,Denoden causes Themaglin.,Themaglin causes Denoden.,Denoden,,firstTopic,Graduated College,60388,1705060883902,1705060823514,male,English,Denoden,Themaglin,56278536ddff3c0005bcdad9,65a129caab5c0c492e5bcab8,65a122e9f05db70790ca9ad7,Themaglin causes Denoden.,33984,0
1261,46,Ceflar causes Denoden.,Denoden causes Ceflar.,Ceflar,,firstTopic,Higher degree,51562,1705060887055,1705060835493,male,English,Ceflar,Denoden,62e24a76566e89b0c2753c5c,65a129db5ff98cf10f54b09b,65a122e9f05db70790ca9ad7,Denoden causes Ceflar.,27405,0
1268,33,Denoden causes Rebosen.,Rebosen causes Denoden.,Denoden,,firstTopic,Higher degree,105756,1705060904201,1705060798445,female,English ,Rebosen,Denoden,5d72bab5c2368600175819a7,65a129ba0375ace43a7ae008,65a122e9f05db70790ca9ad7,Rebosen causes Denoden.,93329,0
1273,52,Themaglin causes Rebosen.,Rebosen causes Themaglin.,Themaglin,,secondTopic,Graduated College,41056,1705060915549,1705060874493,female,,Themaglin,Rebosen,5e8b8e0e380f900589c2ace4,65a12a011b059c90967e9e33,65a122e9f05db70790ca9ad7,Rebosen causes Themaglin.,17951,0
1275,30,Flembers causes Themaglin.,Themaglin causes Flembers.,Flembers,,firstTopic,Higher degree,49556,1705060921966,1705060872410,male,English,Themaglin,Flembers,5bb75d5ab59bb60001009241,65a12a012f43d10fc6801da2,65a122e9f05db70790ca9ad7,Flembers causes Themaglin.,26628,0
1290,27,Ceflar causes Rebosen.,Rebosen causes Ceflar.,Ceflar,,firstTopic,Graduated High-school,35697,1705060954966,1705060919269,female,English,Rebosen,Ceflar,6173d699b67b70872e0aa650,65a12a321822e6e7188ce9bf,65a122e9f05db70790ca9ad7,Ceflar causes Rebosen.,21192,0
1259,37,Rebosen causes Flembers.,Flembers causes Rebosen.,Rebosen,,firstTopic,Graduated High-school,58162,1705060885898,1705060827736,female,English,Flembers,Rebosen,5f2fcda9700ba6032442db9c,65a129d3b2f4d9d7476160c1,65a122e9f05db70790ca9ad7,Rebosen causes Flembers.,35257,0
1269,33,Ceflar causes Rebosen.,Rebosen causes Ceflar.,Ceflar,,secondTopic,Higher degree,47652,1705060907520,1705060859868,female,english,Rebosen,Ceflar,62cfeab06cb6c36b80b91493,65a129f59138e6b8ad9b72a3,65a122e9f05db70790ca9ad7,Ceflar causes Rebosen.,20216,0
1278,30,Themaglin causes Agoriv.,Agoriv causes Themaglin.,Themaglin,,secondTopic,Higher degree,25688,1705060931113,1705060905425,female,English,Themaglin,Agoriv,6148a744a4927f58c507b905,65a12a2672a68c6b5e59111d,65a122e9f05db70790ca9ad7,Agoriv causes Themaglin.,10961,0
1283,49,Ceflar causes Agoriv.,Agoriv causes Ceflar.,Ceflar,,firstTopic,Graduated High-school,67161,1705060936885,1705060869724,female,English,Ceflar,Agoriv,5eadc384e00264461f74d7c8,65a129f90dabe829153f1b80,65a122e9f05db70790ca9ad7,Agoriv causes Ceflar.,47563,0
1309,26,Denoden causes Agoriv.,Agoriv causes Denoden.,Denoden,,firstTopic,Graduated High-school,56244,1705061009704,1705060953460,male,English,Denoden,Agoriv,62b2494a6b5643fdf0d4d52a,65a12a4acef11c31d9e12053,65a122e9f05db70790ca9ad7,Denoden causes Agoriv.,30916,0
1310,36,Denoden causes Agoriv.,Agoriv causes Denoden.,Denoden,,secondTopic,Higher degree,43298,1705061018043,1705060974745,male,,Denoden,Agoriv,5a6a45900384310001944353,65a12a6a298a2914d2a54e67,65a122e9f05db70790ca9ad7,Denoden causes Agoriv.,22192,0
1313,62,Ceflar causes Denoden.,Denoden causes Ceflar.,Ceflar,"I don’t have any further comments, thank you.",firstTopic,Graduated College,108033,1705061030659,1705060922626,female,English,Ceflar,Denoden,622a09fde7c58a6a14e20508,65a12a2b3aeaef761c62e1db,65a122e9f05db70790ca9ad7,Ceflar causes Denoden.,56875,0
1260,68,Agoriv causes Flembers.,Flembers causes Agoriv.,Agoriv,,secondTopic,Graduated College,72081,1705060886525,1705060814444,female,English ,Flembers,Agoriv,5ed556715b338d0d1597dad9,65a129c4aa5da53d9554b09b,65a122e9f05db70790ca9ad7,Flembers causes Agoriv.,39630,0
1282,45,Flembers causes Ceflar.,Ceflar causes Flembers.,Flembers,,firstTopic,Graduated College,116678,1705060935203,1705060818525,female,English ,Ceflar,Flembers,634699cbb044d59e19d5a7ea,65a129cb85a489e938bbc061,65a122e9f05db70790ca9ad7,Ceflar causes Flembers.,41352,0
1289,70,Rebosen causes Denoden.,Denoden causes Rebosen.,Rebosen,,firstTopic,Graduated College,49043,1705060955307,1705060906264,female,,Rebosen,Denoden,5ec935140a3dec42d4da7565,65a12a23aa5111f6d7dfb44d,65a122e9f05db70790ca9ad7,Rebosen causes Denoden.,29129,0
1297,47,Flembers causes Themaglin.,Themaglin causes Flembers.,Flembers,,firstTopic,Higher degree,54691,1705060973979,1705060919288,female,English,Flembers,Themaglin,5f99c390429a4507f8f935dc,65a12a315aac3034b6e0b153,65a122e9f05db70790ca9ad7,Themaglin causes Flembers.,29942,0
1301,30,Themaglin causes Rebosen.,Rebosen causes Themaglin.,Themaglin,,secondTopic,Higher degree,34601,1705060991498,1705060956897,male,English,Rebosen,Themaglin,63ec8f5a027af23c30842450,65a12a5382018d8bbb8d4ed5,65a122e9f05db70790ca9ad7,Themaglin causes Rebosen.,18356,0
1303,62,Rebosen causes Flembers.,Flembers causes Rebosen.,Rebosen,,secondTopic,Graduated College,48753,1705060998380,1705060949627,female,,Rebosen,Flembers,5870336cdb3e720001e230cd,65a12a4c9138e6b8ad9b72ba,65a122e9f05db70790ca9ad7,Flembers causes Rebosen.,22490,0
1307,37,Flembers causes Themaglin.,Themaglin causes Flembers.,Flembers,,secondTopic,Higher degree,29269,1705061006841,1705060977572,female,english,Flembers,Themaglin,613dc2a34367a17b786a0f1c,65a12a570dabe829153f1b90,65a122e9f05db70790ca9ad7,Themaglin causes Flembers.,15379,0
1312,31,Flembers causes Themaglin.,Themaglin causes Flembers.,Flembers,,secondTopic,Higher degree,87503,1705061023642,1705060936139,female,English ,Themaglin,Flembers,5e25ca0e637b4103e19e7168,65a12a0732d7d774f9e11ec1,65a122e9f05db70790ca9ad7,Flembers causes Themaglin.,24678,0
1262,50,Agoriv causes Themaglin.,Themaglin causes Agoriv.,Agoriv,,secondTopic,Graduated High-school,84798,1705060888696,1705060803898,female,English,Agoriv,Themaglin,623835d1500d57afad3cfdbc,65a1299fc8809589b79f2c85,65a122e9f05db70790ca9ad7,Themaglin causes Agoriv.,36172,0
1263,42,Flembers causes Denoden.,Denoden causes Flembers.,Flembers,None.,secondTopic,Higher degree,70060,1705060891633,1705060821573,female,English,Denoden,Flembers,5e0a2c6ca1f3612bc1edd2bc,65a129d1aa5da53d9554b0a0,65a122e9f05db70790ca9ad7,Denoden causes Flembers.,50481,0
1264,63,Agoriv causes Flembers.,Flembers causes Agoriv.,Agoriv,,secondTopic,Graduated College,50890,1705060898602,1705060847712,female,english,Flembers,Agoriv,6040968fbace9b2bac7b21bd,65a129e217bb6b7496715017,65a122e9f05db70790ca9ad7,Agoriv causes Flembers.,23890,0
1266,55,Agoriv causes Denoden.,Denoden causes Agoriv.,Agoriv,,secondTopic,Graduated College,67920,1705060904794,1705060836874,female,english,Denoden,Agoriv,5c9749b849784d001b486f6a,65a129dbab5c0c492e5bcac3,65a122e9f05db70790ca9ad7,Denoden causes Agoriv.,43327,0
1265,66,Rebosen causes Themaglin.,Themaglin causes Rebosen.,Rebosen,,secondTopic,Graduated College,82452,1705060900874,1705060818422,female,English ,Themaglin,Rebosen,6001944c90dd7f081710f788,65a129c79d26c7b456da70f3,65a122e9f05db70790ca9ad7,Rebosen causes Themaglin.,30950,0
1267,43,Agoriv causes Themaglin.,Themaglin causes Agoriv.,Agoriv,,firstTopic,Higher degree,73197,1705060902856,1705060829659,female,English ,Themaglin,Agoriv,5e9042e3765e9734d5ab481c,65a129d71822e6e7188ce9a8,65a122e9f05db70790ca9ad7,Agoriv causes Themaglin.,43448,0
1270,30,Flembers causes Ceflar.,Ceflar causes Flembers.,Flembers,,secondTopic,Graduated College,29111,1705060918797,1705060889686,male,English,Ceflar,Flembers,63d69ccdc2aedd666b740bee,65a12a0a681ea2f7ace192c5,65a122e9f05db70790ca9ad7,Ceflar causes Flembers.,14890,0
1274,39,Themaglin causes Denoden.,Denoden causes Themaglin.,Themaglin,,secondTopic,Graduated College,42294,1705060913266,1705060870972,male,English,Denoden,Themaglin,5ee55d2d0eccfc2a733ad0db,65a129e832d7d774f9e11ebb,65a122e9f05db70790ca9ad7,Themaglin causes Denoden.,19151,0
1279,35,Denoden causes Flembers.,Flembers causes Denoden.,Denoden,,firstTopic,Higher degree,64489,1705060933576,1705060869087,female,English,Flembers,Denoden,5d83ed17ea47230019e0ae50,65a129fe54f5fc3e6e7ae122,65a122e9f05db70790ca9ad7,Flembers causes Denoden.,28026,0
1271,43,Themaglin causes Agoriv.,Agoriv causes Themaglin.,Themaglin,,firstTopic,Higher degree,63277,1705060909862,1705060846585,male,English ,Agoriv,Themaglin,5a8e798af49c9a0001f3dd0d,65a129e569db091048ca9d46,65a122e9f05db70790ca9ad7,Agoriv causes Themaglin.,34727,0
1281,28,Denoden causes Ceflar.,Ceflar causes Denoden.,Denoden,,secondTopic,Graduated College,58965,1705060934466,1705060875501,female,English,Denoden,Ceflar,5ee7665a74f20302efda997f,65a12a0717bb6b749671501c,65a122e9f05db70790ca9ad7,Ceflar causes Denoden.,36952,0
1286,45,Agoriv causes Rebosen.,Rebosen causes Agoriv.,Agoriv,,firstTopic,Graduated College,40205,1705060947267,1705060907062,female,English,Agoriv,Rebosen,5c6c81054d186e00011606d7,65a12a225250f561f69f2ee2,65a122e9f05db70790ca9ad7,Agoriv causes Rebosen.,15027,0
1272,54,Themaglin causes Flembers.,Flembers causes Themaglin.,Themaglin,,firstTopic,Higher degree,47432,1705060912279,1705060864847,male,British,Themaglin,Flembers,5c71ca9bf6c9fe00013ef0b5,65a129f94578f1fdd662d93c,65a122e9f05db70790ca9ad7,Themaglin causes Flembers.,24076,0
1276,27,Themaglin causes Denoden.,Denoden causes Themaglin.,Themaglin,,firstTopic,Higher degree,32531,1705060926253,1705060893722,male,English,Denoden,Themaglin,61bb376b40db417c1a138a52,65a12a199d26c7b456da7102,65a122e9f05db70790ca9ad7,Denoden causes Themaglin.,16867,0
1280,54,Flembers causes Denoden.,Denoden causes Flembers.,Flembers,,secondTopic,Graduated College,64972,1705060932814,1705060867842,male,English,Flembers,Denoden,5dee265613911c4bb3c0ac7e,65a12a00ded39e553a40632f,65a122e9f05db70790ca9ad7,Denoden causes Flembers.,25274,0
1292,40,Flembers causes Themaglin.,Themaglin causes Flembers.,Flembers,,firstTopic,Higher degree,54440,1705060963246,1705060908806,female,,Themaglin,Flembers,5cdebc5cc07328001a4bfd93,65a12a2959b954b56a8ce81f,65a122e9f05db70790ca9ad7,Flembers causes Themaglin.,30376,0
1277,27,Flembers causes Denoden.,Denoden causes Flembers.,Flembers,,secondTopic,Higher degree,34121,1705060933051,1705060898930,female,English,Denoden,Flembers,60f68f4ac13cf8de419f1d8d,65a12a180375ace43a7ae019,65a122e9f05db70790ca9ad7,Flembers causes Denoden.,16923,0
1287,34,Rebosen causes Flembers.,Flembers causes Rebosen.,Rebosen,,firstTopic,Graduated College,35860,1705060987457,1705060951597,male,English,Flembers,Rebosen,5bab5f23fdc48b00017769b7,65a12a2c06d05910f3db60a5,65a122e9f05db70790ca9ad7,Rebosen causes Flembers.,21199,0
1293,36,Rebosen causes Agoriv.,Agoriv causes Rebosen.,Rebosen,,secondTopic,Higher degree,67006,1705060965693,1705060898687,female,English,Rebosen,Agoriv,6278d1d21fe9f6c30e44e3f1,65a12a1cc4a7561237097f3d,65a122e9f05db70790ca9ad7,Agoriv causes Rebosen.,44387,0
1295,26,Ceflar causes Flembers.,Flembers causes Ceflar.,Ceflar,,firstTopic,Higher degree,35057,1705060968316,1705060933259,female,English,Ceflar,Flembers,5e716ca3bea4de092aebb04e,65a12a0448ee4a1f83d583cd,65a122e9f05db70790ca9ad7,Flembers causes Ceflar.,22154,0
1299,28,Rebosen causes Ceflar.,Ceflar causes Rebosen.,Rebosen,,secondTopic,Higher degree,27892,1705060977689,1705060949797,female,English,Rebosen,Ceflar,5f28431d82be890d2f58a32d,65a12a4d5aac3034b6e0b15a,65a122e9f05db70790ca9ad7,Ceflar causes Rebosen.,13663,0
1284,44,Ceflar causes Themaglin.,Themaglin causes Ceflar.,Ceflar,,secondTopic,Higher degree,44536,1705060938162,1705060893626,male,English ,Ceflar,Themaglin,5acb56195cd105000162769c,65a12a17a15adfd1cbab1961,65a122e9f05db70790ca9ad7,Ceflar causes Themaglin.,21699,0
1285,63,Denoden causes Flembers.,Flembers causes Denoden.,Denoden,,firstTopic,Higher degree,66141,1705060942658,1705060876517,female,English,Flembers,Denoden,563fecf4074be600055e98c7,65a12a04e1c4638c65e6167f,65a122e9f05db70790ca9ad7,Denoden causes Flembers.,36975,0
1294,40,Denoden causes Agoriv.,Agoriv causes Denoden.,Denoden,,firstTopic,Graduated College,75643,1705060966974,1705060891331,female,british,Agoriv,Denoden,5f0c7dcc324f8b0ca60380f6,65a12a13298a2914d2a54e39,65a122e9f05db70790ca9ad7,Agoriv causes Denoden.,31755,0
1288,43,Rebosen causes Ceflar.,Ceflar causes Rebosen.,Rebosen,,secondTopic,Higher degree,50427,1705060953998,1705060903571,male,english,Rebosen,Ceflar,5bed755fcca71f00014111e6,65a12a215aac3034b6e0b14f,65a122e9f05db70790ca9ad7,Rebosen causes Ceflar.,31665,0
1291,55,Flembers causes Ceflar.,Ceflar causes Flembers.,Flembers,,firstTopic,Higher degree,44174,1705060958944,1705060914770,female,English,Ceflar,Flembers,5b7aa7bd5eb62e000187fbf3,65a12a2bb2f4d9d7476160d5,65a122e9f05db70790ca9ad7,Flembers causes Ceflar.,27757,0
1298,40,Denoden causes Rebosen.,Rebosen causes Denoden.,Denoden,none,firstTopic,Graduated College,33475,1705060975299,1705060941824,male,English,Denoden,Rebosen,6400df36b874223e35e25247,65a12a4b5de10ad6eda2aa54,65a122e9f05db70790ca9ad7,Rebosen causes Denoden.,18201,0
1302,51,Themaglin causes Flembers.,Flembers causes Themaglin.,Themaglin,,secondTopic,Graduated High-school,60699,1705060996959,1705060936260,female,English,Themaglin,Flembers,57d02eeec6c5ed00013fac58,65a12a3d368849e7d7878f6a,65a122e9f05db70790ca9ad7,Themaglin causes Flembers.,33176,0
1304,55,Rebosen causes Ceflar.,Ceflar causes Rebosen.,Rebosen,,firstTopic,Graduated College,79533,1705061005988,1705060926455,female,English,Rebosen,Ceflar,5ca64b903ef7310012d20924,65a12a305a6399c66c80257f,65a122e9f05db70790ca9ad7,Ceflar causes Rebosen.,42075,0
1311,40,Flembers causes Rebosen.,Rebosen causes Flembers.,Flembers,,secondTopic,Higher degree,61938,1705061018824,1705060956886,female,English,Flembers,Rebosen,59d4b6a8e59146000112e523,65a12a554c9817024a8d4f6f,65a122e9f05db70790ca9ad7,Rebosen causes Flembers.,38223,0
1315,31,Flembers causes Ceflar.,Ceflar causes Flembers.,Flembers,,secondTopic,Higher degree,66184,1705061044475,1705060978291,male,English,Flembers,Ceflar,62c83041b362f6fad2f05822,65a12a6907bc85122656ec6c,65a122e9f05db70790ca9ad7,Ceflar causes Flembers.,34534,0
1296,36,Agoriv causes Rebosen.,Rebosen causes Agoriv.,Agoriv,,secondTopic,Graduated High-school,42028,1705060968772,1705060926744,female,English,Rebosen,Agoriv,5f42bc0d038f801050ada7e4,65a12a351e0d2ba969128a23,65a122e9f05db70790ca9ad7,Rebosen causes Agoriv.,15360,0
1300,55,Agoriv causes Ceflar.,Ceflar causes Agoriv.,Agoriv,,secondTopic,Graduated College,41573,1705060984077,1705060942504,male,English,Agoriv,Ceflar,5e299f15090b9b000c8e768d,65a12a445a6399c66c802580,65a122e9f05db70790ca9ad7,Ceflar causes Agoriv.,18333,0
1306,41,Rebosen causes Denoden.,Denoden causes Rebosen.,Rebosen,none,secondTopic,Graduated High-school,49319,1705061005879,1705060956560,female,English,Rebosen,Denoden,5f0d962b96a8fa000871c68c,65a12a3a51e0a8b62ad58574,65a122e9f05db70790ca9ad7,Rebosen causes Denoden.,23503,0
1316,51,Denoden causes Agoriv.,Agoriv causes Denoden.,Denoden,,firstTopic,Graduated College,70577,1705061044922,1705060974345,female,English,Agoriv,Denoden,61a74f60a9217c6f76a4d0e4,65a12a5b13b590e6e1878f10,65a122e9f05db70790ca9ad7,Denoden causes Agoriv.,37897,0
1305,57,Rebosen causes Ceflar.,Ceflar causes Rebosen.,Rebosen,,secondTopic,Graduated College,65525,1705061006290,1705060940765,female,English,Ceflar,Rebosen,610bf8bb5e404552e5306d41,65a12a3e133343091318d965,65a122e9f05db70790ca9ad7,Rebosen causes Ceflar.,36259,0
1308,61,Flembers causes Themaglin.,Themaglin causes Flembers.,Flembers,,firstTopic,Graduated College,108470,1705061008516,1705060900046,female,English,Flembers,Themaglin,5f529c8d81da7d58cd46cc29,65a12a2019601417c84d65da,65a122e9f05db70790ca9ad7,Themaglin causes Flembers.,75733,0
1317,63,Agoriv causes Denoden.,Denoden causes Agoriv.,Agoriv,,secondTopic,Graduated High-school,78604,1705061049308,1705060970704,male,English,Denoden,Agoriv,5ec9288c8ec8f804d6809d9b,65a12a6214c9e5b877da6f55,65a122e9f05db70790ca9ad7,Denoden causes Agoriv.,41938,0
1318,69,Ceflar causes Agoriv.,Agoriv causes Ceflar.,Ceflar,n/a,secondTopic,Graduated College,94107,1705061064046,1705060969939,male,English,Ceflar,Agoriv,5f90632f36d7b010513bc198,65a12a594578f1fdd662d957,65a122e9f05db70790ca9ad7,Ceflar causes Agoriv.,38016,0
1314,21,Flembers causes Denoden.,Denoden causes Flembers.,Flembers,,secondTopic,Graduated College,55366,1705061031751,1705060976385,female,English,Flembers,Denoden,5fe9f4af50c73d970297ecc1,65a12a6b9394712d91014bdb,65a122e9f05db70790ca9ad7,Flembers causes Denoden.,20617,0
1319,53,Flembers causes Agoriv.,Agoriv causes Flembers.,Flembers,,secondTopic,Graduated High-school,198221,1705061160644,1705060962423,male,english,Agoriv,Flembers,5739f0a514f69e000d7c8f1a,65a12a5aea25afdc0b128d29,65a122e9f05db70790ca9ad7,Flembers causes Agoriv.,174805,0
1321,47,Flembers causes Agoriv.,Agoriv causes Flembers.,Flembers,,firstTopic,Graduated High-school,83526,1705072653888,1705072570362,male,English,Flembers,Agoriv,5eb88a864ff3447c5a193e1c,65a157b1b173c78aa2cb214e,65a1558a287e4da2c7e273b0,Agoriv causes Flembers.,38199,0
1322,34,Rebosen causes Themaglin.,Themaglin causes Rebosen.,Rebosen,,firstTopic,Graduated High-school,41794,1705072685824,1705072644030,male,English,Themaglin,Rebosen,6318c0a4cb9283beadb86aef,65a157fe7481db70fd65aa81,65a1558a287e4da2c7e273b0,Themaglin causes Rebosen.,18745,0
1323,49,Denoden causes Agoriv.,Agoriv causes Denoden.,Denoden,,secondTopic,,50544,1705072691647,1705072641103,male,English ,Agoriv,Denoden,5b98f0ac0a155300018e26c0,65a157f9a24319e1245cff16,65a1558a287e4da2c7e273b0,Denoden causes Agoriv.,32599,0
1324,38,Themaglin causes Agoriv.,Agoriv causes Themaglin.,Themaglin,no,firstTopic,Graduated College,24197,1705072699828,1705072675631,male,english,Themaglin,Agoriv,63d7a3d4e2bb16fb1975d341,65a1581882326fcf0b1cd49e,65a1558a287e4da2c7e273b0,Themaglin causes Agoriv.,10830,0
1325,45,Themaglin causes Denoden.,Denoden causes Themaglin.,Themaglin,,secondTopic,Higher degree,43052,1705072717930,1705072674878,female,English,Denoden,Themaglin,5ed4eb0e91ac4d011cb77c93,65a1581a77dfc42c3809fd21,65a1558a287e4da2c7e273b0,Themaglin causes Denoden.,23101,0
1333,26,Denoden causes Flembers.,Flembers causes Denoden.,Denoden,,secondTopic,Higher degree,26934,1705072932262,1705072905328,female,english,Denoden,Flembers,61624a8096e30edac3a0685a,65a15903be95f10dd8ef2be2,65a1558a287e4da2c7e273b0,Denoden causes Flembers.,10468,0
1338,31,Rebosen causes Flembers.,Flembers causes Rebosen.,Rebosen,,secondTopic,Graduated College,38117,1705072996785,1705072958668,female,English ,Rebosen,Flembers,5b0edee43f8b980001a5cba9,65a15938c506614dd16c6c6f,65a1558a287e4da2c7e273b0,Rebosen causes Flembers.,17823,0
1326,30,Rebosen causes Agoriv.,Agoriv causes Rebosen.,Rebosen,,firstTopic,Graduated College,42615,1705072738770,1705072696155,female,English,Rebosen,Agoriv,5eb1ca5e72e4b6317f511243,65a1582493c1c266779d2de4,65a1558a287e4da2c7e273b0,Rebosen causes Agoriv.,19282,0
1327,32,Ceflar causes Rebosen.,Rebosen causes Ceflar.,Ceflar,,firstTopic,Higher degree,39324,1705072825367,1705072786043,other,English ,Rebosen,Ceflar,600224756c914915821a56cc,65a1588c7481db70fd65aa9c,65a1558a287e4da2c7e273b0,Rebosen causes Ceflar.,18173,0
1328,21,Ceflar causes Flembers.,Flembers causes Ceflar.,Ceflar,,secondTopic,Graduated College,42515,1705072833938,1705072791423,female,English,Flembers,Ceflar,60fd1ef14b9926d74181569e,65a1588eb6abae3207fa8e49,65a1558a287e4da2c7e273b0,Flembers causes Ceflar.,21419,0
1329,26,Ceflar causes Denoden.,Denoden causes Ceflar.,Ceflar,,firstTopic,Graduated High-school,89348,1705072871790,1705072782442,female,English,Ceflar,Denoden,5e20726e5f39763836970b3f,65a15885568de0b549ef2c7d,65a1558a287e4da2c7e273b0,Ceflar causes Denoden.,25617,0
1335,56,Flembers causes Themaglin.,Themaglin causes Flembers.,Flembers,,firstTopic,Graduated College,35592,1705072957405,1705072921813,female,,Themaglin,Flembers,58bbed6fab807a000184525d,65a15911b53897f0161c78ed,65a1558a287e4da2c7e273b0,Themaglin causes Flembers.,19805,0
1330,34,Denoden causes Ceflar.,Ceflar causes Denoden.,Denoden,,firstTopic,Graduated College,61998,1705072886622,1705072824624,male,English ,Ceflar,Denoden,647e135b2a7569c2f18cc9df,65a158b0521d494e95fa8e80,65a1558a287e4da2c7e273b0,Ceflar causes Denoden.,21387,0
1331,32,Denoden causes Flembers.,Flembers causes Denoden.,Denoden,,secondTopic,Higher degree,22495,1705072907649,1705072885154,female,english,Denoden,Flembers,5b1ac052ea64a000017c389e,65a158ee3e1912510f60bae2,65a1558a287e4da2c7e273b0,Flembers causes Denoden.,9262,0
1332,34,Ceflar causes Denoden.,Denoden causes Ceflar.,Ceflar,,firstTopic,Graduated College,80647,1705072915260,1705072834613,female,English ,Ceflar,Denoden,59a904a19fdf6c0001cba73b,65a158bc58d823550219855b,65a1558a287e4da2c7e273b0,Ceflar causes Denoden.,25428,0
1334,62,Flembers causes Ceflar.,Ceflar causes Flembers.,Flembers,,secondTopic,Higher degree,76464,1705072960017,1705072883553,male,,Flembers,Ceflar,5e972ac569be230840974427,65a158e182326fcf0b1cd4cf,65a1558a287e4da2c7e273b0,Ceflar causes Flembers.,49900,0
1336,43,Themaglin causes Flembers.,Flembers causes Themaglin.,Themaglin,,secondTopic,Graduated High-school,75585,1705072966463,1705072890878,male,English,Themaglin,Flembers,6290d7f8e9893e609919976d,65a158f4ef1fdd34252c0798,65a1558a287e4da2c7e273b0,Flembers causes Themaglin.,49378,0
1340,38,Rebosen causes Denoden.,Denoden causes Rebosen.,Rebosen,None,secondTopic,Higher degree,41949,1705073021194,1705072979245,female,English ,Denoden,Rebosen,5f8f40be49664a18164e7231,65a1594b4011d2afcde14684,65a1558a287e4da2c7e273b0,Rebosen causes Denoden.,13063,0
1337,32,Ceflar causes Denoden.,Denoden causes Ceflar.,Ceflar,,secondTopic,Graduated High-school,132651,1705072979782,1705072847131,female,English,Denoden,Ceflar,5d1298b0194487001a679c6c,65a158a70212849a9060bb71,65a1558a287e4da2c7e273b0,Denoden causes Ceflar.,70513,0
1341,40,Denoden causes Rebosen.,Rebosen causes Denoden.,Denoden,,firstTopic,Higher degree,90970,1705073081021,1705072990051,female,English,Denoden,Rebosen,5f55685bbc03311306de7720,65a1595689de9feea05cfea9,65a1558a287e4da2c7e273b0,Rebosen causes Denoden.,56094,0
1339,64,Rebosen causes Ceflar.,Ceflar causes Rebosen.,Rebosen,,firstTopic,Graduated High-school,43451,1705073010675,1705072967224,female,English,Ceflar,Rebosen,5deba29b787ce529a9725c54,65a1593e79b3e54e5c0d431d,65a1558a287e4da2c7e273b0,Ceflar causes Rebosen.,16859,0
1120,43,Denoden causes Ceflar.,Ceflar causes Denoden.,Denoden,,firstTopic,Graduated College,35497,1705060024298,1705059988801,male,English,Denoden,Ceflar,57fb71185babd2000141049a,65a12699ded39e553a406244,65a122e9f05db70790ca9ad7,Denoden causes Ceflar.,17054,0
1121,22,Themaglin causes Rebosen.,Rebosen causes Themaglin.,Themaglin,,firstTopic,Graduated College,51826,1705060213760,1705060161934,male,English,Rebosen,Themaglin,62c4447bf90fc4b646c59a62,65a126a7fb05be4e2018dafb,65a122e9f05db70790ca9ad7,Themaglin causes Rebosen.,26709,0
1122,42,Denoden causes Ceflar.,Ceflar causes Denoden.,Denoden,,secondTopic,Higher degree,42710,1705060090390,1705060047680,male,English ,Ceflar,Denoden,59236837989cc20001414f5c,65a126c1080aacaa17759d5d,65a122e9f05db70790ca9ad7,Denoden causes Ceflar.,22210,0
1123,33,Denoden causes Ceflar.,Ceflar causes Denoden.,Denoden,,firstTopic,Higher degree,29738,1705060100317,1705060070579,male,English,Denoden,Ceflar,60ef0152a0a2d4f1fef1c67b,65a126d3c95bfc2b1c014a40,65a122e9f05db70790ca9ad7,Ceflar causes Denoden.,17565,0
1129,39,Flembers causes Rebosen.,Rebosen causes Flembers.,Flembers,no,secondTopic,Graduated College,31731,1705060165584,1705060133853,female,English,Rebosen,Flembers,5b7d2513c91d640001c611c6,65a1271eded39e553a406272,65a122e9f05db70790ca9ad7,Flembers causes Rebosen.,15582,0
1140,,Agoriv causes Denoden.,Denoden causes Agoriv.,Agoriv,,secondTopic,,37147,1705060346192,1705060309045,,,Denoden,Agoriv,5ed02d8b92a5730f56ca529c,65a127ccf05db70790ca9c30,65a122e9f05db70790ca9ad7,Agoriv causes Denoden.,28972,0
1141,41,Themaglin causes Agoriv.,Agoriv causes Themaglin.,Themaglin,,secondTopic,Graduated College,96903,1705060349158,1705060252255,female,English,Agoriv,Themaglin,59d264e2faf42e00012b6cba,65a1278c0dabe829153f1ab0,65a122e9f05db70790ca9ad7,Themaglin causes Agoriv.,68581,0
1143,39,Rebosen causes Agoriv.,Agoriv causes Rebosen.,Rebosen,,firstTopic,Graduated College,74168,1705060359021,1705060284853,female,English,Rebosen,Agoriv,5c6351df1185c40001a36277,65a127b517bb6b7496714f57,65a122e9f05db70790ca9ad7,Agoriv causes Rebosen.,49795,0
1170,53,Flembers causes Themaglin.,Themaglin causes Flembers.,Flembers,,secondTopic,Graduated College,83126,1705060534940,1705060451814,female,,Themaglin,Flembers,5cc738beccedf40015cad7b6,65a128568c5e2964e168cadd,65a122e9f05db70790ca9ad7,Flembers causes Themaglin.,54161,0
1186,24,Denoden causes Themaglin.,Themaglin causes Denoden.,Denoden,,firstTopic,Graduated College,95473,1705060613218,1705060517745,female,English,Themaglin,Denoden,5e2aca4be0c1bf11764e00dd,65a1289f8965b3592f7734fe,65a122e9f05db70790ca9ad7,Themaglin causes Denoden.,69190,0
1198,32,Themaglin causes Agoriv.,Agoriv causes Themaglin.,Themaglin,,firstTopic,Graduated College,36903,1705060645581,1705060608678,female,English,Agoriv,Themaglin,6053583d8ec99854b153ffff,65a128f785a489e938bbc023,65a122e9f05db70790ca9ad7,Themaglin causes Agoriv.,17719,0
1222,33,Rebosen causes Ceflar.,Ceflar causes Rebosen.,Rebosen,,secondTopic,Did not graduate High-school,16302,1705060763149,1705060746847,female,polish,Rebosen,Ceflar,5f1af086e0ba3225821329c7,65a129865a6399c66c802546,65a122e9f05db70790ca9ad7,Rebosen causes Ceflar.,1433,0
1124,62,Themaglin causes Denoden.,Denoden causes Themaglin.,Themaglin,,firstTopic,Graduated College,66610,1705060109560,1705060042950,male,English,Themaglin,Denoden,63e57e8adf6f336c1fa9e241,65a126bf1f0ed40bc632a836,65a122e9f05db70790ca9ad7,Themaglin causes Denoden.,35810,0
1125,38,Themaglin causes Rebosen.,Rebosen causes Themaglin.,Themaglin,,secondTopic,Higher degree,64111,1705060124772,1705060060661,female,English,Rebosen,Themaglin,5d2c8cc93eb007000190800c,65a126d2f05db70790ca9bdf,65a122e9f05db70790ca9ad7,Themaglin causes Rebosen.,27243,0
1126,67,Ceflar causes Themaglin.,Themaglin causes Ceflar.,Ceflar,,secondTopic,Graduated College,87328,1705060135468,1705060048140,male,English ,Themaglin,Ceflar,598dd5523694eb0001b81e14,65a126c50b76b9c69c62df6d,65a122e9f05db70790ca9ad7,Ceflar causes Themaglin.,37229,0
1127,34,Agoriv causes Flembers.,Flembers causes Agoriv.,Agoriv,,secondTopic,Graduated College,42990,1705060146224,1705060103234,male,English ,Agoriv,Flembers,63bc69a63d3a5a157c184737,65a127003f1e0b7d5f097d3d,65a122e9f05db70790ca9ad7,Agoriv causes Flembers.,15830,0
1128,30,Rebosen causes Ceflar.,Ceflar causes Rebosen.,Rebosen,,secondTopic,Graduated High-school,44936,1705060146932,1705060101996,female,English,Ceflar,Rebosen,629f2a1ac5333345160b9d0e,65a126fb4a417b3218a2b0f6,65a122e9f05db70790ca9ad7,Ceflar causes Rebosen.,22089,0
1131,32,Agoriv causes Flembers.,Flembers causes Agoriv.,Agoriv,,secondTopic,Graduated High-school,40471,1705060196898,1705060156427,female,English,Agoriv,Flembers,5a5fae59e0cf3d000126cb05,65a1272c5d0dfb9448e19421,65a122e9f05db70790ca9ad7,Flembers causes Agoriv.,16953,0
1133,50,Flembers causes Themaglin.,Themaglin causes Flembers.,Flembers,,firstTopic,Higher degree,39703,1705060216334,1705060176631,male,,Themaglin,Flembers,63ccf36d28eed40cecc71c8d,65a1274951e0a8b62ad584ab,65a122e9f05db70790ca9ad7,Themaglin causes Flembers.,23787,0
1134,24,Ceflar causes Denoden.,Denoden causes Ceflar.,Ceflar,,firstTopic,Graduated College,65445,1705060228747,1705060163302,female,english,Denoden,Ceflar,5d1c7010d4f7b30001d833a2,65a1273c3aeaef761c62e0b0,65a122e9f05db70790ca9ad7,Ceflar causes Denoden.,42253,0
1136,29,Rebosen causes Themaglin.,Themaglin causes Rebosen.,Rebosen,,firstTopic,Higher degree,29548,1705060284590,1705060255042,female,English,Themaglin,Rebosen,5a572107e0cf3d0001263e50,65a1279507bc85122656ebb0,65a122e9f05db70790ca9ad7,Rebosen causes Themaglin.,13350,0
1138,28,Agoriv causes Ceflar.,Ceflar causes Agoriv.,Agoriv,Would’ve been better suited just on a tablet or desktop,secondTopic,Higher degree,52201,1705060310531,1705060258330,female,English,Agoriv,Ceflar,6146f124bb2e80c27e8b5797,65a1279b980d7c61b7591195,65a122e9f05db70790ca9ad7,Ceflar causes Agoriv.,22439,0
1130,46,Ceflar causes Rebosen.,Rebosen causes Ceflar.,Ceflar,,firstTopic,Graduated High-school,74210,1705060183710,1705060109500,female,,Ceflar,Rebosen,5979c3e92ef10300019af054,65a1270459b954b56a8ce6fa,65a122e9f05db70790ca9ad7,Rebosen causes Ceflar.,48972,0
1132,33,Denoden causes Ceflar.,Ceflar causes Denoden.,Denoden,,firstTopic,Graduated College,37762,1705060210016,1705060172254,female,English,Ceflar,Denoden,6036e6d7a9be29063e16da2d,65a127455a6399c66c802420,65a122e9f05db70790ca9ad7,Denoden causes Ceflar.,17557,0
1135,61,Agoriv causes Flembers.,Flembers causes Agoriv.,Agoriv,,firstTopic,Graduated High-school,42274,1705060279262,1705060236988,male,English,Agoriv,Flembers,5ac9069f1667e40001d889f2,65a127889ce6887d75bdb255,65a122e9f05db70790ca9ad7,Agoriv causes Flembers.,19767,0
1137,58,Agoriv causes Themaglin.,Themaglin causes Agoriv.,Agoriv,,firstTopic,Graduated College,78325,1705060296456,1705060218131,male,English,Themaglin,Agoriv,616f315b5e74ca5b9a1d2ca7,65a1277482018d8bbb8d4e07,65a122e9f05db70790ca9ad7,Agoriv causes Themaglin.,38701,0
1147,38,Denoden causes Themaglin.,Themaglin causes Denoden.,Denoden,,secondTopic,Graduated College,28887,1705060402131,1705060373244,male,English,Themaglin,Denoden,5fa8603ba9a9c56e60b79ad2,65a1280f04810323fe8399d1,65a122e9f05db70790ca9ad7,Denoden causes Themaglin.,11996,0
1150,52,Themaglin causes Flembers.,Flembers causes Themaglin.,Themaglin,,secondTopic,Higher degree,33640,1705060417751,1705060384111,male,English,Flembers,Themaglin,59e4b3a1896cfc0001921095,65a1281c298a2914d2a54d99,65a122e9f05db70790ca9ad7,Themaglin causes Flembers.,18723,0
1152,50,Agoriv causes Flembers.,Flembers causes Agoriv.,Agoriv,,secondTopic,Graduated High-school,42786,1705060420863,1705060378077,female,,Flembers,Agoriv,5f02daa521345d453a228f9b,65a1281254f0e517aa7e9e76,65a122e9f05db70790ca9ad7,Agoriv causes Flembers.,20519,0
1153,50,Agoriv causes Flembers.,Flembers causes Agoriv.,Agoriv,,firstTopic,Higher degree,41659,1705060418188,1705060376529,female,english,Agoriv,Flembers,57d1b28b74b21200012d2619,65a127e48965b3592f7734ad,65a122e9f05db70790ca9ad7,Agoriv causes Flembers.,20201,0
1163,58,Denoden causes Flembers.,Flembers causes Denoden.,Denoden,,secondTopic,Graduated High-school,112753,1705060516675,1705060403922,female,English,Flembers,Denoden,5ae0a3ccd8775f00015f1156,65a1282297ae1adfeebdb140,65a122e9f05db70790ca9ad7,Flembers causes Denoden.,71141,0
1175,31,Denoden causes Rebosen.,Rebosen causes Denoden.,Denoden,,secondTopic,Graduated College,33427,1705060553371,1705060519944,female,English,Rebosen,Denoden,60953e706e4315704b74eb1f,65a128a3d0f68e117256ed72,65a122e9f05db70790ca9ad7,Denoden causes Rebosen.,16383,0
1139,34,Agoriv causes Ceflar.,Ceflar causes Agoriv.,Agoriv,,secondTopic,Graduated High-school,33195,1705060328488,1705060295293,male,English,Ceflar,Agoriv,5ede846106e3cc0ffc9f70d6,65a127c2368849e7d7878eb4,65a122e9f05db70790ca9ad7,Agoriv causes Ceflar.,19255,0
1158,53,Flembers causes Rebosen.,Rebosen causes Flembers.,Flembers,,secondTopic,Higher degree,56773,1705060459886,1705060403113,female,English,Rebosen,Flembers,5e201636114df83213fc8df9,65a1282a9d26c7b456da7089,65a122e9f05db70790ca9ad7,Flembers causes Rebosen.,30731,0
1195,43,Flembers causes Denoden.,Denoden causes Flembers.,Flembers,,firstTopic,Higher degree,32604,1705060641931,1705060609327,male,English ,Denoden,Flembers,5b05cc3511a9a900012e715f,65a128f9045f54d833db69c5,65a122e9f05db70790ca9ad7,Flembers causes Denoden.,17145,0
1215,49,Flembers causes Ceflar.,Ceflar causes Flembers.,Flembers,,secondTopic,Graduated College,47196,1705060734377,1705060687181,male,english,Flembers,Ceflar,654cf162c4734be5a883dffa,65a1294b9394712d91014b74,65a122e9f05db70790ca9ad7,Ceflar causes Flembers.,23733,0
1221,30,Themaglin causes Rebosen.,Rebosen causes Themaglin.,Themaglin,,firstTopic,Graduated High-school,72221,1705060762516,1705060690295,male,English,Rebosen,Themaglin,611c1610a5b698640b84a82c,65a1294931ed2685cc32abe3,65a122e9f05db70790ca9ad7,Themaglin causes Rebosen.,53706,0
1142,27,Ceflar causes Flembers.,Flembers causes Ceflar.,Ceflar,,firstTopic,,47621,1705060358170,1705060310549,male,,Flembers,Ceflar,5c51d4dcfd18da00011ac45f,65a127d014c9e5b877da6e64,65a122e9f05db70790ca9ad7,Ceflar causes Flembers.,25803,0
1145,42,Rebosen causes Flembers.,Flembers causes Rebosen.,Rebosen,,secondTopic,Graduated College,54666,1705060378213,1705060323547,female,ENGLISH,Rebosen,Flembers,5ef1b77f5bc64a04f4c68141,65a127d33e3c1e062944cfe6,65a122e9f05db70790ca9ad7,Flembers causes Rebosen.,10255,0
1160,35,Denoden causes Ceflar.,Ceflar causes Denoden.,Denoden,,firstTopic,Graduated College,36316,1705060483266,1705060446950,female,English,Denoden,Ceflar,60fef598fdc5d86a5918c7df,65a1285703c8518df19b71fe,65a122e9f05db70790ca9ad7,Denoden causes Ceflar.,16912,0
1171,53,Rebosen causes Themaglin.,Themaglin causes Rebosen.,Rebosen,,firstTopic,Graduated College,44055,1705060535367,1705060491312,male,English,Themaglin,Rebosen,55a1d8e2fdf99b1c103f2660,65a1288134fea90df9839b67,65a122e9f05db70790ca9ad7,Rebosen causes Themaglin.,21931,0
1173,36,Ceflar causes Flembers.,Flembers causes Ceflar.,Ceflar,"I picked the more likely from the binary options, but I did not believe that causation was implied at all in the sentence!",secondTopic,Graduated High-school,68425,1705060544544,1705060476119,female,English,Ceflar,Flembers,5b71998ea27d1600013172ad,65a12876ea25afdc0b128c80,65a122e9f05db70790ca9ad7,Flembers causes Ceflar.,17888,0
1181,35,Ceflar causes Denoden.,Denoden causes Ceflar.,Ceflar,,secondTopic,Graduated College,51786,1705060583594,1705060531808,female,English,Ceflar,Denoden,5f1432a0bf131c4757eb1f89,65a128ad31ed2685cc32aba0,65a122e9f05db70790ca9ad7,Denoden causes Ceflar.,33424,0
1190,52,Denoden causes Ceflar.,Ceflar causes Denoden.,Denoden,My honest answer would have been that I wouldn’t be able to decide fully without reading more information ,secondTopic,Graduated High-school,103386,1705060624783,1705060521397,female,English ,Ceflar,Denoden,645ec1eb6b4dbd5e28b16a56,65a1289dcef11c31d9e11fb7,65a122e9f05db70790ca9ad7,Denoden causes Ceflar.,31961,0
1192,59,Flembers causes Denoden.,Denoden causes Flembers.,Flembers,,secondTopic,Graduated High-school,65700,1705060638632,1705060572932,female,English,Flembers,Denoden,604a183313d6f22d1a0bf243,65a128d1e1c4638c65e61623,65a122e9f05db70790ca9ad7,Flembers causes Denoden.,30989,0
1199,22,Ceflar causes Flembers.,Flembers causes Ceflar.,Ceflar,,secondTopic,Higher degree,24167,1705060654413,1705060630246,female,English,Flembers,Ceflar,5f2b1bcbfa2da3513cb07b77,65a129115aac3034b6e0b0d6,65a122e9f05db70790ca9ad7,Ceflar causes Flembers.,10216,0
1206,27,Ceflar causes Flembers.,Flembers causes Ceflar.,Ceflar,,firstTopic,Graduated High-school,29162,1705060674417,1705060645255,male,English,Flembers,Ceflar,5d41bf44397a63001cf3bd3d,65a1291e2542cab4c1772e48,65a122e9f05db70790ca9ad7,Ceflar causes Flembers.,14738,0
1144,34,Flembers causes Denoden.,Denoden causes Flembers.,Flembers,,firstTopic,Higher degree,43799,1705060380607,1705060336808,male,English ,Flembers,Denoden,55256ccbfdf99b546084e425,65a127ea4034dd7ac4a54cff,65a122e9f05db70790ca9ad7,Denoden causes Flembers.,23749,0
1149,26,Agoriv causes Ceflar.,Ceflar causes Agoriv.,Agoriv,,firstTopic,Higher degree,42083,1705060412750,1705060370667,female,English ,Ceflar,Agoriv,60fd439d2024f55d946966ab,65a1280e32d7d774f9e11e1b,65a122e9f05db70790ca9ad7,Ceflar causes Agoriv.,18991,0
1151,72,Agoriv causes Denoden.,Denoden causes Agoriv.,Agoriv,,firstTopic,Higher degree,72629,1705060419026,1705060346397,male,English,Agoriv,Denoden,5ace05690527ba0001c286d8,65a127ed5250f561f69f2e51,65a122e9f05db70790ca9ad7,Agoriv causes Denoden.,27030,0
1154,32,Flembers causes Rebosen.,Rebosen causes Flembers.,Flembers,,secondTopic,Higher degree,47591,1705060442740,1705060395149,male,English,Rebosen,Flembers,5f8d6321ba192d045c3ae281,65a128244c9817024a8d4ef6,65a122e9f05db70790ca9ad7,Flembers causes Rebosen.,23620,0
1164,39,Flembers causes Themaglin.,Themaglin causes Flembers.,Flembers,,secondTopic,Graduated High-school,45451,1705060514080,1705060468629,male,English,Themaglin,Flembers,588e7fc25726cc00011d72ce,65a128599138e6b8ad9b723f,65a122e9f05db70790ca9ad7,Themaglin causes Flembers.,23255,0
1176,47,Themaglin causes Rebosen.,Rebosen causes Themaglin.,Themaglin,,secondTopic,Higher degree,26946,1705060564072,1705060537126,female,,Themaglin,Rebosen,570a87445e07ac000f6eabc3,65a128b604810323fe8399f6,65a122e9f05db70790ca9ad7,Themaglin causes Rebosen.,16948,0
1184,34,Denoden causes Agoriv.,Agoriv causes Denoden.,Denoden,,secondTopic,Higher degree,52415,1705060603902,1705060551487,male,English ,Agoriv,Denoden,63172692591f6b7c1b94af3a,65a128bc1822e6e7188ce956,65a122e9f05db70790ca9ad7,Denoden causes Agoriv.,26979,0
1185,55,Flembers causes Denoden.,Denoden causes Flembers.,Flembers,None,secondTopic,Higher degree,51953,1705060608121,1705060556168,male,English,Flembers,Denoden,6457707a43430c565103290a,65a128c067f422e1d9acbc85,65a122e9f05db70790ca9ad7,Denoden causes Flembers.,33391,0
1194,68,Flembers causes Denoden.,Denoden causes Flembers.,Flembers,,secondTopic,Higher degree,133197,1705060638009,1705060504812,female,english,Flembers,Denoden,655a89c33de851eb1d4a08d2,65a1288503c8518df19b720f,65a122e9f05db70790ca9ad7,Flembers causes Denoden.,64195,0
1204,26,Ceflar causes Agoriv.,Agoriv causes Ceflar.,Ceflar,,firstTopic,Graduated College,41730,1705060664385,1705060622655,female,English,Agoriv,Ceflar,5f441181bb3f780f570dc54c,65a129083aeaef761c62e178,65a122e9f05db70790ca9ad7,Ceflar causes Agoriv.,21386,0
1146,35,Rebosen causes Flembers.,Flembers causes Rebosen.,Rebosen,N/A,secondTopic,Higher degree,52923,1705060388735,1705060335812,male,English,Flembers,Rebosen,5dfcf9a12e47259f5bdcd77f,65a127e78dcd2e37f55bc7cb,65a122e9f05db70790ca9ad7,Rebosen causes Flembers.,31650,0
1148,41,Rebosen causes Ceflar.,Ceflar causes Rebosen.,Rebosen,,firstTopic,Graduated College,48434,1705060411394,1705060362960,female,English,Rebosen,Ceflar,5c55fcea58076d000100bf78,65a12804235e7332c4dfb453,65a122e9f05db70790ca9ad7,Rebosen causes Ceflar.,30776,0
1156,36,Rebosen causes Flembers.,Flembers causes Rebosen.,Rebosen,,firstTopic,Graduated College,52067,1705060458039,1705060405972,female,English,Rebosen,Flembers,640c85af8fddd5b5615588df,65a127aa34fea90df9839b1d,65a122e9f05db70790ca9ad7,Flembers causes Rebosen.,22093,0
1157,33,Rebosen causes Themaglin.,Themaglin causes Rebosen.,Rebosen,,secondTopic,Graduated College,36264,1705060459308,1705060423044,female,English,Themaglin,Rebosen,5f2460917bb0bd0183f28780,65a1284149b108783aa2614a,65a122e9f05db70790ca9ad7,Rebosen causes Themaglin.,17650,0
1161,60,Agoriv causes Themaglin.,Themaglin causes Agoriv.,Agoriv,,firstTopic,Higher degree,70187,1705060493441,1705060423254,female,English,Themaglin,Agoriv,63b84157bb3eb77c442413e8,65a12844133343091318d8c4,65a122e9f05db70790ca9ad7,Agoriv causes Themaglin.,47973,0
1162,20,Flembers causes Agoriv.,Agoriv causes Flembers.,Flembers,,firstTopic,Graduated High-school,44532,1705060511223,1705060466691,female,english,Agoriv,Flembers,60fd3acfcc770960eb30fee5,65a1286cf05db70790ca9c63,65a122e9f05db70790ca9ad7,Agoriv causes Flembers.,10518,0
1165,43,Themaglin causes Denoden.,Denoden causes Themaglin.,Themaglin,,secondTopic,Higher degree,32184,1705060525689,1705060493505,male,English,Denoden,Themaglin,5d469176beeecd0001d01c9e,65a1287e4a417b3218a2b1b6,65a122e9f05db70790ca9ad7,Themaglin causes Denoden.,14140,0
1166,21,Rebosen causes Denoden.,Denoden causes Rebosen.,Rebosen,,firstTopic,Graduated High-school,35860,1705060526872,1705060491012,female,english ,Denoden,Rebosen,60f80462613c5e998b7c667b,65a1286048ee4a1f83d5833c,65a122e9f05db70790ca9ad7,Denoden causes Rebosen.,13542,0
1168,41,Agoriv causes Ceflar.,Ceflar causes Agoriv.,Agoriv,,firstTopic,Graduated College,45263,1705060530167,1705060484904,female,English,Ceflar,Agoriv,5877b2fada731b000104aa74,65a1288054f0e517aa7e9e93,65a122e9f05db70790ca9ad7,Agoriv causes Ceflar.,22749,0
1178,29,Rebosen causes Agoriv.,Agoriv causes Rebosen.,Rebosen,,firstTopic,Graduated College,36634,1705060709591,1705060672957,male,English,Rebosen,Agoriv,5e49b2a85ea85e42fd5d8b33,65a128b7045f54d833db6993,65a122e9f05db70790ca9ad7,Agoriv causes Rebosen.,17401,0
1155,39,Themaglin causes Flembers.,Flembers causes Themaglin.,Themaglin,,secondTopic,Graduated High-school,58380,1705060457620,1705060399240,female,English,Flembers,Themaglin,61f2ac22a09e72f23cbaf578,65a12829235e7332c4dfb464,65a122e9f05db70790ca9ad7,Flembers causes Themaglin.,33457,0
1159,45,Agoriv causes Flembers.,Flembers causes Agoriv.,Agoriv,,secondTopic,Graduated College,50915,1705060465174,1705060414259,female,English,Agoriv,Flembers,58d3b42e9dbe3f0001258d95,65a128341197b92b04ab1fbd,65a122e9f05db70790ca9ad7,Flembers causes Agoriv.,23536,0
1167,32,Rebosen causes Themaglin.,Themaglin causes Rebosen.,Rebosen,,secondTopic,Graduated College,80997,1705060528979,1705060447982,female,english,Rebosen,Themaglin,652ee32e38ce753f432f7128,65a1285631ed2685cc32ab64,65a122e9f05db70790ca9ad7,Rebosen causes Themaglin.,60843,0
1172,40,Agoriv causes Flembers.,Flembers causes Agoriv.,Agoriv,,firstTopic,Graduated College,37608,1705060536422,1705060498814,male,English ,Agoriv,Flembers,5bd046302c109500017a4232,65a128892f43d10fc6801d64,65a122e9f05db70790ca9ad7,Agoriv causes Flembers.,15561,0
1180,28,Rebosen causes Ceflar.,Ceflar causes Rebosen.,Rebosen,,firstTopic,Higher degree,32696,1705060582867,1705060550171,female,English,Ceflar,Rebosen,5f262b3018c68e27aebdd170,65a128c0fb05be4e2018db92,65a122e9f05db70790ca9ad7,Rebosen causes Ceflar.,14369,0
1191,34,Agoriv causes Ceflar.,Ceflar causes Agoriv.,Agoriv,,firstTopic,Graduated College,40804,1705060624851,1705060584047,male,English,Agoriv,Ceflar,6126b41565b2600c71bb995c,65a128e6235e7332c4dfb4a9,65a122e9f05db70790ca9ad7,Agoriv causes Ceflar.,14195,0
1197,29,Denoden causes Flembers.,Flembers causes Denoden.,Denoden,,firstTopic,Graduated High-school,33010,1705060644165,1705060611155,male,English,Flembers,Denoden,5d83fc04e3cd6a00010bb09b,65a128fc5d0dfb9448e194b8,65a122e9f05db70790ca9ad7,Denoden causes Flembers.,14544,0
1205,33,Flembers causes Themaglin.,Themaglin causes Flembers.,Flembers,,firstTopic,Graduated College,57272,1705060668313,1705060611041,male,English,Themaglin,Flembers,62e94bce63b1acd1a52c4e07,65a128f951e0a8b62ad5851f,65a122e9f05db70790ca9ad7,Flembers causes Themaglin.,28652,0
1212,26,Denoden causes Ceflar.,Ceflar causes Denoden.,Denoden,,secondTopic,Graduated High-school,61404,1705060705252,1705060643848,male,English,Ceflar,Denoden,5f4822c87200c92c9ef20bb1,65a1291a4a417b3218a2b20f,65a122e9f05db70790ca9ad7,Ceflar causes Denoden.,32828,0
1220,35,Flembers causes Rebosen.,Rebosen causes Flembers.,Flembers,,firstTopic,Graduated High-school,33955,1705060761959,1705060728004,female,English,Flembers,Rebosen,563fc664074be600055e9677,65a1295c4a417b3218a2b232,65a122e9f05db70790ca9ad7,Rebosen causes Flembers.,18262,0
1169,41,Ceflar causes Themaglin.,Themaglin causes Ceflar.,Ceflar,,secondTopic,Graduated High-school,70422,1705060532960,1705060462538,female,English,Themaglin,Ceflar,61435c6aefcedb7c973f886c,65a128685d0dfb9448e19485,65a122e9f05db70790ca9ad7,Ceflar causes Themaglin.,41745,0
1174,32,Denoden causes Agoriv.,Agoriv causes Denoden.,Denoden,,secondTopic,Graduated High-school,38234,1705060552578,1705060514344,female,Engl ,Denoden,Agoriv,593f105f02d1cc0001071a72,65a128989ce6887d75bdb29b,65a122e9f05db70790ca9ad7,Denoden causes Agoriv.,17878,0
1182,35,Flembers causes Rebosen.,Rebosen causes Flembers.,Flembers,,firstTopic,Higher degree,28556,1705060589867,1705060561311,female,english,Rebosen,Flembers,5e06b4cb19232d0875f2276d,65a128be045f54d833db69a0,65a122e9f05db70790ca9ad7,Rebosen causes Flembers.,15099,0
1187,33,Denoden causes Flembers.,Flembers causes Denoden.,Denoden,,firstTopic,Graduated High-school,53254,1705060613681,1705060560427,female,English,Flembers,Denoden,63f77df50855adb7fa6586d9,65a128ca9d26c7b456da70b8,65a122e9f05db70790ca9ad7,Denoden causes Flembers.,25808,0
1203,29,Flembers causes Agoriv.,Agoriv causes Flembers.,Flembers,,firstTopic,Higher degree,68269,1705060662624,1705060594355,female,English,Agoriv,Flembers,5ed624f66a45aa01f81e1d98,65a128e9a982b27017acb4f8,65a122e9f05db70790ca9ad7,Flembers causes Agoriv.,40579,0
1209,38,Flembers causes Rebosen.,Rebosen causes Flembers.,Flembers,,firstTopic,Graduated High-school,40312,1705060685388,1705060645076,female,English ,Flembers,Rebosen,5b6c0505b98cef00016f78ba,65a1291f1f0ed40bc632a8e7,65a122e9f05db70790ca9ad7,Flembers causes Rebosen.,17327,0
1216,44,Flembers causes Themaglin.,Themaglin causes Flembers.,Flembers,,secondTopic,Graduated High-school,87601,1705060740428,1705060652827,female,English,Themaglin,Flembers,6128d93fb1fe83b029616a1e,65a129245250f561f69f2ea3,65a122e9f05db70790ca9ad7,Flembers causes Themaglin.,45639,0
1177,20,Themaglin causes Flembers.,Flembers causes Themaglin.,Themaglin,,firstTopic,Graduated High-school,84854,1705060564510,1705060479656,female,English,Themaglin,Flembers,62e33b68751db9358347c167,65a128779138e6b8ad9b7247,65a122e9f05db70790ca9ad7,Flembers causes Themaglin.,49112,0
1202,32,Rebosen causes Denoden.,Denoden causes Rebosen.,Rebosen,,secondTopic,Higher degree,40307,1705060660856,1705060620549,female,English,Rebosen,Denoden,5b1d6b028ee548000112a555,65a129040dabe829153f1b3f,65a122e9f05db70790ca9ad7,Denoden causes Rebosen.,24608,0
1207,51,Agoriv causes Themaglin.,Themaglin causes Agoriv.,Agoriv,,firstTopic,Graduated High-school,47674,1705060677673,1705060630000,male,,Agoriv,Themaglin,5af59900892f4e000163b98a,65a1290819601417c84d6582,65a122e9f05db70790ca9ad7,Agoriv causes Themaglin.,18231,0
1210,23,Themaglin causes Rebosen.,Rebosen causes Themaglin.,Themaglin,,secondTopic,Higher degree,52553,1705060693639,1705060641086,male,English,Themaglin,Rebosen,5f0c5a561cecb606cd7987b0,65a1291bcb7ff4c5fb61608d,65a122e9f05db70790ca9ad7,Rebosen causes Themaglin.,23319,0
1211,61,Flembers causes Rebosen.,Rebosen causes Flembers.,Flembers,,firstTopic,Graduated College,48430,1705060697473,1705060649043,male,English,Flembers,Rebosen,60e18fc810d0837bef0f5873,65a129265a4412856f44d014,65a122e9f05db70790ca9ad7,Rebosen causes Flembers.,26107,0
1214,30,Rebosen causes Denoden.,Denoden causes Rebosen.,Rebosen,,secondTopic,Higher degree,36967,1705060731608,1705060694641,female,English,Rebosen,Denoden,6056fd13af4fb264b32ca8a9,65a1295085a489e938bbc043,65a122e9f05db70790ca9ad7,Rebosen causes Denoden.,17618,0
1219,38,Themaglin causes Flembers.,Flembers causes Themaglin.,Themaglin,,firstTopic,Higher degree,80323,1705060761111,1705060680788,male,English ,Themaglin,Flembers,5c9a03e39de0ed0001388d06,65a12933980d7c61b7591231,65a122e9f05db70790ca9ad7,Flembers causes Themaglin.,34190,0
1179,54,Ceflar causes Themaglin.,Themaglin causes Ceflar.,Ceflar,,firstTopic,Higher degree,42964,1705060575700,1705060532736,female,English,Ceflar,Themaglin,5e10783741a089000a6a8562,65a12898ea25afdc0b128c91,65a122e9f05db70790ca9ad7,Themaglin causes Ceflar.,14916,0
1183,55,Denoden causes Flembers.,Flembers causes Denoden.,Denoden,none,secondTopic,Higher degree,69387,1705060595798,1705060526411,female,English,Denoden,Flembers,5bc58a439d9a7c0001cfa90e,65a128a74a417b3218a2b1c4,65a122e9f05db70790ca9ad7,Denoden causes Flembers.,25016,0
1188,65,Ceflar causes Agoriv.,Agoriv causes Ceflar.,Ceflar,NA,secondTopic,Higher degree,28565,1705060616394,1705060587829,male,English,Agoriv,Ceflar,5eb50e5315a3c137f40cbad3,65a128e5fb05be4e2018db9b,65a122e9f05db70790ca9ad7,Ceflar causes Agoriv.,14596,0
1200,60,Ceflar causes Agoriv.,Agoriv causes Ceflar.,Ceflar,no,secondTopic,Graduated College,46195,1705060657205,1705060611010,female,English,Ceflar,Agoriv,577d9254c6144900014a0083,65a128fc76503f8ea73f192c,65a122e9f05db70790ca9ad7,Agoriv causes Ceflar.,16659,0
1208,25,Ceflar causes Agoriv.,Agoriv causes Ceflar.,Ceflar,,firstTopic,Higher degree,32249,1705060677388,1705060645139,male,,Agoriv,Ceflar,5ce19a7691250a001d8e1096,65a129214c9817024a8d4f44,65a122e9f05db70790ca9ad7,Ceflar causes Agoriv.,17262,0
1189,33,Flembers causes Denoden.,Denoden causes Flembers.,Flembers,none,secondTopic,Higher degree,30146,1705060616670,1705060586524,male,english,Flembers,Denoden,5ef5c4db3ce68a02806df888,65a128e772a68c6b5e5910d5,65a122e9f05db70790ca9ad7,Denoden causes Flembers.,11979,0
1217,35,Denoden causes Agoriv.,Agoriv causes Denoden.,Denoden,,firstTopic,Graduated College,40139,1705060748188,1705060708049,male,English,Agoriv,Denoden,5d532bb9d103e90018c69203,65a1295d72a68c6b5e5910e6,65a122e9f05db70790ca9ad7,Agoriv causes Denoden.,19707,0
1218,43,Denoden causes Rebosen.,Rebosen causes Denoden.,Denoden,,firstTopic,Graduated High-school,42935,1705060754479,1705060711544,female,english,Denoden,Rebosen,60187851316976127d909f30,65a1296572a68c6b5e5910e7,65a122e9f05db70790ca9ad7,Denoden causes Rebosen.,19588,0
1193,27,Ceflar causes Rebosen.,Rebosen causes Ceflar.,Ceflar,N/A,firstTopic,Graduated College,57459,1705060639589,1705060582130,male,English,Rebosen,Ceflar,5b7aa12ea545240001d93c98,65a128db03c6839aa1714f8c,65a122e9f05db70790ca9ad7,Rebosen causes Ceflar.,18251,0
1196,57,Themaglin causes Rebosen.,Rebosen causes Themaglin.,Themaglin,,secondTopic,Graduated College,79085,1705060642080,1705060562995,female,English,Rebosen,Themaglin,56fee6f704254b0010ffe6ab,65a128cb5a6399c66c8024ef,65a122e9f05db70790ca9ad7,Rebosen causes Themaglin.,51233,0
1201,67,Ceflar causes Flembers.,Flembers causes Ceflar.,Ceflar,,firstTopic,Did not graduate High-school,80699,1705060659425,1705060578726,male,English,Flembers,Ceflar,602074233ff3da67be983216,65a128d403c8518df19b7229,65a122e9f05db70790ca9ad7,Flembers causes Ceflar.,30049,0
1213,33,Ceflar causes Denoden.,Denoden causes Ceflar.,Ceflar,,secondTopic,Graduated College,35552,1705060731915,1705060696363,male,English,Ceflar,Denoden,5cab9c01291df900015c2849,65a1295359b954b56a8ce7df,65a122e9f05db70790ca9ad7,Ceflar causes Denoden.,22168,0
